participant,painstim,moneystim,all_trials_rewards,painlevel,painlevel_J,leftstim,rightstim,acceptside,acceptkey,accepted,choice_resp.keys,choice_resp.rt,blocks.thisRepN,trials.thisN,TaskName,P1,P2,P3,P4,P5,fail_ma,fixduration,moneylevel,rt,response,subj_idx,acceptance_pair,OV_value,Abs_value,OV_Money_Pain,Abs_Money_Pain,fixduration,moneylevel,sv_money,sv_pain,sv_both,p_pain_all
sub-002,p1,m2,,1,20500.0,stimuli/m2.png,stimuli/p1.png,right,m,1.0,m,1.3291009999993548,0.0,1.0,decision,205.0,305.0,415.0,530.0,660.0,700.0,1.8,2,1.3291009999993548,1.0,sub-002,M,low_OV,low_abs,low_OV_h_money,low_abs_h_money,1.8,2,2,0.2333333333333325,-1.766666666666667,1.0
sub-002,p3,m2,,3,41500.0,stimuli/p3.png,stimuli/m2.png,right,m,1.0,m,0.91960889999973,0.0,2.0,decision,205.0,305.0,415.0,530.0,660.0,700.0,1.5,2,0.91960889999973,1.0,sub-002,P,low_OV,low_abs,low_OV_h_pain,low_abs_h_pain,1.5,2,2,0.6999999999999974,-1.300000000000002,1.0
sub-002,p4,m4,,4,53000.0,stimuli/p4.png,stimuli/m4.png,right,m,1.0,m,0.9543577000004008,0.0,3.0,decision,205.0,305.0,415.0,530.0,660.0,700.0,1.9,4,0.9543577000004008,1.0,sub-002,I,high_OV,low_abs,h_OV_h_pain,low_abs_h_pain,1.9,4,4,0.9333333333333299,-3.06666666666667,1.0
sub-002,p4,m2,,4,53000.0,stimuli/p4.png,stimuli/m2.png,right,m,1.0,m,1.3423058999997008,0.0,4.0,decision,205.0,305.0,415.0,530.0,660.0,700.0,1.6,2,1.3423058999997008,1.0,sub-002,P,high_OV,mid_abs,h_OV_h_pain,mid_abs,1.6,2,2,0.9333333333333299,-1.06666666666667,1.0
sub-002,p4,m3,,4,53000.0,stimuli/p4.png,stimuli/m3.png,right,m,1.0,m,0.8743370000011055,0.0,5.0,decision,205.0,305.0,415.0,530.0,660.0,700.0,1.7,3,0.8743370000011055,1.0,sub-002,P,high_OV,low_abs,h_OV_h_pain,low_abs_h_pain,1.7,3,3,0.9333333333333299,-2.06666666666667,1.0
sub-002,p2,m3,,2,30500.0,stimuli/p2.png,stimuli/m3.png,right,m,1.0,m,0.9069684000005508,0.0,6.0,decision,205.0,305.0,415.0,530.0,660.0,700.0,2.0,3,0.9069684000005508,1.0,sub-002,M,low_OV,low_abs,low_OV_h_money,low_abs_h_money,2.0,3,3,0.466666666666665,-2.533333333333335,1.0
sub-002,p3,m5,,3,41500.0,stimuli/p3.png,stimuli/m5.png,right,m,1.0,m,0.9792395000004036,0.0,7.0,decision,205.0,305.0,415.0,530.0,660.0,700.0,1.7,5,0.9792395000004036,1.0,sub-002,M,high_OV,mid_abs,h_OV_h_money,mid_abs,1.7,5,5,0.6999999999999974,-4.300000000000002,1.0
sub-002,p2,m4,,2,30500.0,stimuli/p2.png,stimuli/m4.png,right,m,1.0,m,0.6974529000017355,0.0,9.0,decision,205.0,305.0,415.0,530.0,660.0,700.0,1.5,4,0.6974529000017355,1.0,sub-002,M,high_OV,mid_abs,h_OV_h_money,mid_abs,1.5,4,4,0.466666666666665,-3.533333333333335,1.0
sub-002,p4,m5,,4,53000.0,stimuli/m5.png,stimuli/p4.png,right,m,1.0,m,0.8919903000005434,0.0,10.0,decision,205.0,305.0,415.0,530.0,660.0,700.0,2.0,5,0.8919903000005434,1.0,sub-002,M,high_OV,low_abs,h_OV_h_money,low_abs_h_money,2.0,5,5,0.9333333333333299,-4.06666666666667,1.0
sub-002,p1,m1,,1,20500.0,stimuli/p1.png,stimuli/m1.png,right,m,1.0,m,0.7937033999987761,0.0,11.0,decision,205.0,305.0,415.0,530.0,660.0,700.0,1.6,1,0.7937033999987761,1.0,sub-002,I,low_OV,low_abs,low_OV_h_pain,low_abs_h_pain,1.6,1,1,0.2333333333333325,-0.7666666666666675,1.0
sub-002,p5,m4,,5,66000.0,stimuli/m4.png,stimuli/p5.png,right,m,1.0,m,0.9585715000011988,0.0,12.0,decision,205.0,305.0,415.0,530.0,660.0,700.0,1.5,4,0.9585715000011988,1.0,sub-002,P,high_OV,low_abs,h_OV_h_pain,low_abs_h_pain,1.5,4,4,1.166666666666662,-2.833333333333337,1.0
sub-002,p2,m1,,2,30500.0,stimuli/m1.png,stimuli/p2.png,right,m,1.0,m,0.7253421000004892,0.0,13.0,decision,205.0,305.0,415.0,530.0,660.0,700.0,1.9,1,0.7253421000004892,1.0,sub-002,P,low_OV,low_abs,low_OV_h_pain,low_abs_h_pain,1.9,1,1,0.466666666666665,-0.533333333333335,1.0
sub-002,p1,m3,,1,20500.0,stimuli/m3.png,stimuli/p1.png,right,m,1.0,m,0.7238062000014907,0.0,14.0,decision,205.0,305.0,415.0,530.0,660.0,700.0,1.9,3,0.7238062000014907,1.0,sub-002,M,low_OV,mid_abs,low_OV_h_money,mid_abs,1.9,3,3,0.2333333333333325,-2.766666666666667,1.0
sub-002,p5,m3,,5,66000.0,stimuli/m3.png,stimuli/p5.png,right,m,1.0,m,0.8921475000006467,0.0,15.0,decision,205.0,305.0,415.0,530.0,660.0,700.0,1.5,3,0.8921475000006467,1.0,sub-002,P,high_OV,mid_abs,h_OV_h_pain,mid_abs,1.5,3,3,1.166666666666662,-1.833333333333338,1.0
sub-002,p3,m3,,3,41500.0,stimuli/m3.png,stimuli/p3.png,right,m,1.0,m,0.6956635000005917,0.0,16.0,decision,205.0,305.0,415.0,530.0,660.0,700.0,1.9,3,0.6956635000005917,1.0,sub-002,I,high_OV,low_abs,h_OV_h_pain,low_abs_h_pain,1.9,3,3,0.6999999999999974,-2.300000000000002,1.0
sub-002,p2,m5,,2,30500.0,stimuli/p2.png,stimuli/m5.png,right,m,1.0,m,0.7756065000012313,0.0,17.0,decision,205.0,305.0,415.0,530.0,660.0,700.0,1.5,5,0.7756065000012313,1.0,sub-002,M,high_OV,high_abs,h_OV_h_money,high_abs_h_money,1.5,5,5,0.466666666666665,-4.533333333333335,1.0
sub-002,p1,m5,,1,20500.0,stimuli/p1.png,stimuli/m5.png,right,m,1.0,m,0.6312133000010363,0.0,18.0,decision,205.0,305.0,415.0,530.0,660.0,700.0,1.5,5,0.6312133000010363,1.0,sub-002,M,high_OV,high_abs,h_OV_h_money,high_abs_h_money,1.5,5,5,0.2333333333333325,-4.766666666666667,1.0
sub-002,p1,m4,,1,20500.0,stimuli/p1.png,stimuli/m4.png,right,m,1.0,m,0.6095313999994687,0.0,19.0,decision,205.0,305.0,415.0,530.0,660.0,700.0,1.6,4,0.6095313999994687,1.0,sub-002,M,low_OV,high_abs,low_OV_h_money,high_abs_h_money,1.6,4,4,0.2333333333333325,-3.766666666666667,1.0
sub-002,p3,m1,,3,41500.0,stimuli/m1.png,stimuli/p3.png,right,m,1.0,m,0.748071500000151,0.0,20.0,decision,205.0,305.0,415.0,530.0,660.0,700.0,1.7,1,0.748071500000151,1.0,sub-002,P,low_OV,mid_abs,low_OV_h_pain,mid_abs,1.7,1,1,0.6999999999999974,-0.3000000000000026,1.0
sub-002,p5,m2,,5,66000.0,stimuli/m2.png,stimuli/p5.png,right,m,1.0,m,0.9947190000002591,0.0,21.0,decision,205.0,305.0,415.0,530.0,660.0,700.0,1.5,2,0.9947190000002591,1.0,sub-002,P,high_OV,high_abs,h_OV_h_pain,high_abs_h_pain,1.5,2,2,1.166666666666662,-0.8333333333333377,1.0
sub-002,p3,m4,,3,41500.0,stimuli/p3.png,stimuli/m4.png,right,m,1.0,m,0.7080361000007542,0.0,22.0,decision,205.0,305.0,415.0,530.0,660.0,700.0,1.8,4,0.7080361000007542,1.0,sub-002,M,high_OV,low_abs,h_OV_h_money,low_abs_h_money,1.8,4,4,0.6999999999999974,-3.300000000000002,1.0
sub-002,p4,m1,,4,53000.0,stimuli/p4.png,stimuli/m1.png,right,m,1.0,m,0.6855746000001091,0.0,23.0,decision,205.0,305.0,415.0,530.0,660.0,700.0,1.8,1,0.6855746000001091,1.0,sub-002,P,low_OV,high_abs,low_OV_h_pain,high_abs_h_pain,1.8,1,1,0.9333333333333299,-0.0666666666666701,1.0
sub-002,p5,m5,,5,66000.0,stimuli/p5.png,stimuli/m5.png,right,m,1.0,m,0.6708612999991601,0.0,24.0,decision,205.0,305.0,415.0,530.0,660.0,700.0,1.7,5,0.6708612999991601,1.0,sub-002,I,high_OV,low_abs,h_OV_h_pain,low_abs_h_pain,1.7,5,5,1.166666666666662,-3.833333333333337,1.0
sub-002,p2,m2,,2,30500.0,stimuli/m2.png,stimuli/p2.png,right,m,1.0,m,0.6821433999994042,1.0,0.0,decision,205.0,305.0,415.0,530.0,660.0,700.0,1.8,2,0.6821433999994042,1.0,sub-002,I,low_OV,low_abs,low_OV_h_pain,low_abs_h_pain,1.8,2,2,0.466666666666665,-1.533333333333335,1.0
sub-002,p2,m1,,2,30500.0,stimuli/m1.png,stimuli/p2.png,right,m,1.0,m,1.2083457999997336,1.0,1.0,decision,205.0,305.0,415.0,530.0,660.0,700.0,1.7,1,1.2083457999997336,1.0,sub-002,P,low_OV,low_abs,low_OV_h_pain,low_abs_h_pain,1.7,1,1,0.466666666666665,-0.533333333333335,1.0
sub-002,p1,m5,,1,20500.0,stimuli/m5.png,stimuli/p1.png,right,m,1.0,m,0.6609789999984059,1.0,2.0,decision,205.0,305.0,415.0,530.0,660.0,700.0,1.6,5,0.6609789999984059,1.0,sub-002,M,high_OV,high_abs,h_OV_h_money,high_abs_h_money,1.6,5,5,0.2333333333333325,-4.766666666666667,1.0
sub-002,p5,m5,,5,66000.0,stimuli/m5.png,stimuli/p5.png,right,m,1.0,m,0.5350167000015063,1.0,3.0,decision,205.0,305.0,415.0,530.0,660.0,700.0,1.9,5,0.5350167000015063,1.0,sub-002,I,high_OV,low_abs,h_OV_h_pain,low_abs_h_pain,1.9,5,5,1.166666666666662,-3.833333333333337,1.0
sub-002,p3,m2,,3,41500.0,stimuli/m2.png,stimuli/p3.png,right,m,1.0,m,0.7264359000000695,1.0,4.0,decision,205.0,305.0,415.0,530.0,660.0,700.0,1.7,2,0.7264359000000695,1.0,sub-002,P,low_OV,low_abs,low_OV_h_pain,low_abs_h_pain,1.7,2,2,0.6999999999999974,-1.300000000000002,1.0
sub-002,p3,m1,,3,41500.0,stimuli/p3.png,stimuli/m1.png,right,m,1.0,m,0.4941044000006513,1.0,5.0,decision,205.0,305.0,415.0,530.0,660.0,700.0,1.5,1,0.4941044000006513,1.0,sub-002,P,low_OV,mid_abs,low_OV_h_pain,mid_abs,1.5,1,1,0.6999999999999974,-0.3000000000000026,1.0
sub-002,p4,m1,,4,53000.0,stimuli/m1.png,stimuli/p4.png,right,m,1.0,m,1.6311606999988726,1.0,6.0,decision,205.0,305.0,415.0,530.0,660.0,700.0,1.9,1,1.6311606999988726,1.0,sub-002,P,low_OV,high_abs,low_OV_h_pain,high_abs_h_pain,1.9,1,1,0.9333333333333299,-0.0666666666666701,1.0
sub-002,p5,m4,,5,66000.0,stimuli/p5.png,stimuli/m4.png,right,m,1.0,m,0.7706639999996696,1.0,7.0,decision,205.0,305.0,415.0,530.0,660.0,700.0,1.5,4,0.7706639999996696,1.0,sub-002,P,high_OV,low_abs,h_OV_h_pain,low_abs_h_pain,1.5,4,4,1.166666666666662,-2.833333333333337,1.0
sub-002,p1,m2,,1,20500.0,stimuli/p1.png,stimuli/m2.png,right,m,1.0,m,0.6876931999995577,1.0,8.0,decision,205.0,305.0,415.0,530.0,660.0,700.0,1.5,2,0.6876931999995577,1.0,sub-002,M,low_OV,low_abs,low_OV_h_money,low_abs_h_money,1.5,2,2,0.2333333333333325,-1.766666666666667,1.0
sub-002,p4,m4,,4,53000.0,stimuli/p4.png,stimuli/m4.png,right,m,1.0,m,0.6642520000004879,1.0,9.0,decision,205.0,305.0,415.0,530.0,660.0,700.0,2.0,4,0.6642520000004879,1.0,sub-002,I,high_OV,low_abs,h_OV_h_pain,low_abs_h_pain,2.0,4,4,0.9333333333333299,-3.06666666666667,1.0
sub-002,p4,m5,,4,53000.0,stimuli/p4.png,stimuli/m5.png,right,m,1.0,m,0.6768885999990744,1.0,10.0,decision,205.0,305.0,415.0,530.0,660.0,700.0,1.8,5,0.6768885999990744,1.0,sub-002,M,high_OV,low_abs,h_OV_h_money,low_abs_h_money,1.8,5,5,0.9333333333333299,-4.06666666666667,1.0
sub-002,p1,m4,,1,20500.0,stimuli/m4.png,stimuli/p1.png,right,m,1.0,m,0.5704630000000179,1.0,11.0,decision,205.0,305.0,415.0,530.0,660.0,700.0,1.8,4,0.5704630000000179,1.0,sub-002,M,low_OV,high_abs,low_OV_h_money,high_abs_h_money,1.8,4,4,0.2333333333333325,-3.766666666666667,1.0
sub-002,p3,m5,,3,41500.0,stimuli/p3.png,stimuli/m5.png,right,m,1.0,m,0.6061291999994864,1.0,12.0,decision,205.0,305.0,415.0,530.0,660.0,700.0,1.9,5,0.6061291999994864,1.0,sub-002,M,high_OV,mid_abs,h_OV_h_money,mid_abs,1.9,5,5,0.6999999999999974,-4.300000000000002,1.0
sub-002,p5,m1,,5,66000.0,stimuli/p5.png,stimuli/m1.png,right,m,1.0,m,0.6491211000011391,1.0,13.0,decision,205.0,305.0,415.0,530.0,660.0,700.0,1.8,1,0.6491211000011391,1.0,sub-002,P,high_OV,high_abs,h_OV_h_pain,high_abs_h_pain,1.8,1,1,1.166666666666662,0.1666666666666623,1.0
sub-002,p2,m5,,2,30500.0,stimuli/p2.png,stimuli/m5.png,right,m,1.0,m,0.7414446999991924,1.0,14.0,decision,205.0,305.0,415.0,530.0,660.0,700.0,1.8,5,0.7414446999991924,1.0,sub-002,M,high_OV,high_abs,h_OV_h_money,high_abs_h_money,1.8,5,5,0.466666666666665,-4.533333333333335,1.0
sub-002,p2,m3,,2,30500.0,stimuli/p2.png,stimuli/m3.png,right,m,1.0,m,0.6434161000015592,1.0,15.0,decision,205.0,305.0,415.0,530.0,660.0,700.0,1.7,3,0.6434161000015592,1.0,sub-002,M,low_OV,low_abs,low_OV_h_money,low_abs_h_money,1.7,3,3,0.466666666666665,-2.533333333333335,1.0
sub-002,p4,m2,,4,53000.0,stimuli/p4.png,stimuli/m2.png,right,m,1.0,m,0.9690012999999452,1.0,16.0,decision,205.0,305.0,415.0,530.0,660.0,700.0,2.0,2,0.9690012999999452,1.0,sub-002,P,high_OV,mid_abs,h_OV_h_pain,mid_abs,2.0,2,2,0.9333333333333299,-1.06666666666667,1.0
sub-002,p3,m4,,3,41500.0,stimuli/p3.png,stimuli/m4.png,right,m,1.0,m,0.5966304999983549,1.0,17.0,decision,205.0,305.0,415.0,530.0,660.0,700.0,1.7,4,0.5966304999983549,1.0,sub-002,M,high_OV,low_abs,h_OV_h_money,low_abs_h_money,1.7,4,4,0.6999999999999974,-3.300000000000002,1.0
sub-002,p4,m3,,4,53000.0,stimuli/p4.png,stimuli/m3.png,right,m,1.0,m,0.9324085000007472,1.0,18.0,decision,205.0,305.0,415.0,530.0,660.0,700.0,1.5,3,0.9324085000007472,1.0,sub-002,P,high_OV,low_abs,h_OV_h_pain,low_abs_h_pain,1.5,3,3,0.9333333333333299,-2.06666666666667,1.0
sub-002,p3,m3,,3,41500.0,stimuli/m3.png,stimuli/p3.png,right,m,1.0,m,0.5464453999993566,1.0,19.0,decision,205.0,305.0,415.0,530.0,660.0,700.0,2.0,3,0.5464453999993566,1.0,sub-002,I,high_OV,low_abs,h_OV_h_pain,low_abs_h_pain,2.0,3,3,0.6999999999999974,-2.300000000000002,1.0
sub-002,p2,m4,,2,30500.0,stimuli/p2.png,stimuli/m4.png,right,m,1.0,m,0.5726339000011649,1.0,20.0,decision,205.0,305.0,415.0,530.0,660.0,700.0,1.6,4,0.5726339000011649,1.0,sub-002,M,high_OV,mid_abs,h_OV_h_money,mid_abs,1.6,4,4,0.466666666666665,-3.533333333333335,1.0
sub-002,p1,m1,,1,20500.0,stimuli/m1.png,stimuli/p1.png,right,m,1.0,m,2.6889069000008017,1.0,21.0,decision,205.0,305.0,415.0,530.0,660.0,700.0,1.9,1,2.6889069000008017,1.0,sub-002,I,low_OV,low_abs,low_OV_h_pain,low_abs_h_pain,1.9,1,1,0.2333333333333325,-0.7666666666666675,1.0
sub-002,p5,m2,,5,66000.0,stimuli/m2.png,stimuli/p5.png,right,m,1.0,m,0.4532328000004781,1.0,22.0,decision,205.0,305.0,415.0,530.0,660.0,700.0,1.9,2,0.4532328000004781,1.0,sub-002,P,high_OV,high_abs,h_OV_h_pain,high_abs_h_pain,1.9,2,2,1.166666666666662,-0.8333333333333377,1.0
sub-002,p1,m3,,1,20500.0,stimuli/p1.png,stimuli/m3.png,right,m,1.0,m,0.534575900001073,1.0,23.0,decision,205.0,305.0,415.0,530.0,660.0,700.0,2.0,3,0.534575900001073,1.0,sub-002,M,low_OV,mid_abs,low_OV_h_money,mid_abs,2.0,3,3,0.2333333333333325,-2.766666666666667,1.0
sub-002,p5,m3,,5,66000.0,stimuli/p5.png,stimuli/m3.png,right,m,1.0,m,0.5625657000000501,1.0,24.0,decision,205.0,305.0,415.0,530.0,660.0,700.0,1.8,3,0.5625657000000501,1.0,sub-002,P,high_OV,mid_abs,h_OV_h_pain,mid_abs,1.8,3,3,1.166666666666662,-1.833333333333338,1.0
sub-002,p3,m4,,3,41500.0,stimuli/m4.png,stimuli/p3.png,right,m,1.0,m,0.5399084000000585,2.0,0.0,decision,205.0,305.0,415.0,530.0,660.0,700.0,1.8,4,0.5399084000000585,1.0,sub-002,M,high_OV,low_abs,h_OV_h_money,low_abs_h_money,1.8,4,4,0.6999999999999974,-3.300000000000002,1.0
sub-002,p4,m4,,4,53000.0,stimuli/p4.png,stimuli/m4.png,right,m,1.0,m,0.4002994000002218,2.0,1.0,decision,205.0,305.0,415.0,530.0,660.0,700.0,1.7,4,0.4002994000002218,1.0,sub-002,I,high_OV,low_abs,h_OV_h_pain,low_abs_h_pain,1.7,4,4,0.9333333333333299,-3.06666666666667,1.0
sub-002,p2,m4,,2,30500.0,stimuli/p2.png,stimuli/m4.png,right,m,1.0,m,0.4257575999999972,2.0,2.0,decision,205.0,305.0,415.0,530.0,660.0,700.0,1.8,4,0.4257575999999972,1.0,sub-002,M,high_OV,mid_abs,h_OV_h_money,mid_abs,1.8,4,4,0.466666666666665,-3.533333333333335,1.0
sub-002,p2,m2,,2,30500.0,stimuli/m2.png,stimuli/p2.png,right,m,1.0,m,0.5451631999985693,2.0,3.0,decision,205.0,305.0,415.0,530.0,660.0,700.0,1.6,2,0.5451631999985693,1.0,sub-002,I,low_OV,low_abs,low_OV_h_pain,low_abs_h_pain,1.6,2,2,0.466666666666665,-1.533333333333335,1.0
sub-002,p2,m5,,2,30500.0,stimuli/m5.png,stimuli/p2.png,right,m,1.0,m,0.8715085000003455,2.0,4.0,decision,205.0,305.0,415.0,530.0,660.0,700.0,1.6,5,0.8715085000003455,1.0,sub-002,M,high_OV,high_abs,h_OV_h_money,high_abs_h_money,1.6,5,5,0.466666666666665,-4.533333333333335,1.0
sub-002,p4,m2,,4,53000.0,stimuli/p4.png,stimuli/m2.png,right,m,1.0,m,0.5991358999999647,2.0,5.0,decision,205.0,305.0,415.0,530.0,660.0,700.0,1.5,2,0.5991358999999647,1.0,sub-002,P,high_OV,mid_abs,h_OV_h_pain,mid_abs,1.5,2,2,0.9333333333333299,-1.06666666666667,1.0
sub-002,p1,m5,,1,20500.0,stimuli/m5.png,stimuli/p1.png,right,m,1.0,m,0.6157034999996539,2.0,6.0,decision,205.0,305.0,415.0,530.0,660.0,700.0,1.9,5,0.6157034999996539,1.0,sub-002,M,high_OV,high_abs,h_OV_h_money,high_abs_h_money,1.9,5,5,0.2333333333333325,-4.766666666666667,1.0
sub-002,p1,m3,,1,20500.0,stimuli/p1.png,stimuli/m3.png,right,m,1.0,m,0.6341179000010015,2.0,7.0,decision,205.0,305.0,415.0,530.0,660.0,700.0,2.0,3,0.6341179000010015,1.0,sub-002,M,low_OV,mid_abs,low_OV_h_money,mid_abs,2.0,3,3,0.2333333333333325,-2.766666666666667,1.0
sub-002,p1,m1,,1,20500.0,stimuli/p1.png,stimuli/m1.png,right,m,1.0,m,0.5671124000000418,2.0,8.0,decision,205.0,305.0,415.0,530.0,660.0,700.0,1.7,1,0.5671124000000418,1.0,sub-002,I,low_OV,low_abs,low_OV_h_pain,low_abs_h_pain,1.7,1,1,0.2333333333333325,-0.7666666666666675,1.0
sub-002,p3,m3,,3,41500.0,stimuli/m3.png,stimuli/p3.png,right,m,1.0,m,0.5069935000010446,2.0,9.0,decision,205.0,305.0,415.0,530.0,660.0,700.0,1.5,3,0.5069935000010446,1.0,sub-002,I,high_OV,low_abs,h_OV_h_pain,low_abs_h_pain,1.5,3,3,0.6999999999999974,-2.300000000000002,1.0
sub-002,p5,m2,,5,66000.0,stimuli/m2.png,stimuli/p5.png,right,m,1.0,m,0.5167516999990767,2.0,10.0,decision,205.0,305.0,415.0,530.0,660.0,700.0,1.8,2,0.5167516999990767,1.0,sub-002,P,high_OV,high_abs,h_OV_h_pain,high_abs_h_pain,1.8,2,2,1.166666666666662,-0.8333333333333377,1.0
sub-002,p2,m1,,2,30500.0,stimuli/m1.png,stimuli/p2.png,right,m,1.0,m,0.5335536999991746,2.0,11.0,decision,205.0,305.0,415.0,530.0,660.0,700.0,2.0,1,0.5335536999991746,1.0,sub-002,P,low_OV,low_abs,low_OV_h_pain,low_abs_h_pain,2.0,1,1,0.466666666666665,-0.533333333333335,1.0
sub-002,p2,m3,,2,30500.0,stimuli/p2.png,stimuli/m3.png,right,m,1.0,m,0.4881967999990593,2.0,12.0,decision,205.0,305.0,415.0,530.0,660.0,700.0,1.7,3,0.4881967999990593,1.0,sub-002,M,low_OV,low_abs,low_OV_h_money,low_abs_h_money,1.7,3,3,0.466666666666665,-2.533333333333335,1.0
sub-002,p4,m5,,4,53000.0,stimuli/m5.png,stimuli/p4.png,right,m,1.0,m,0.5932035000005271,2.0,13.0,decision,205.0,305.0,415.0,530.0,660.0,700.0,1.9,5,0.5932035000005271,1.0,sub-002,M,high_OV,low_abs,h_OV_h_money,low_abs_h_money,1.9,5,5,0.9333333333333299,-4.06666666666667,1.0
sub-002,p3,m1,,3,41500.0,stimuli/p3.png,stimuli/m1.png,right,m,1.0,m,0.6822682000001805,2.0,14.0,decision,205.0,305.0,415.0,530.0,660.0,700.0,2.0,1,0.6822682000001805,1.0,sub-002,P,low_OV,mid_abs,low_OV_h_pain,mid_abs,2.0,1,1,0.6999999999999974,-0.3000000000000026,1.0
sub-002,p5,m1,,5,66000.0,stimuli/m1.png,stimuli/p5.png,right,m,1.0,m,0.4931909000006271,2.0,15.0,decision,205.0,305.0,415.0,530.0,660.0,700.0,1.8,1,0.4931909000006271,1.0,sub-002,P,high_OV,high_abs,h_OV_h_pain,high_abs_h_pain,1.8,1,1,1.166666666666662,0.1666666666666623,1.0
sub-002,p5,m3,,5,66000.0,stimuli/m3.png,stimuli/p5.png,right,m,1.0,m,0.6877876999988075,2.0,16.0,decision,205.0,305.0,415.0,530.0,660.0,700.0,1.6,3,0.6877876999988075,1.0,sub-002,P,high_OV,mid_abs,h_OV_h_pain,mid_abs,1.6,3,3,1.166666666666662,-1.833333333333338,1.0
sub-002,p4,m1,,4,53000.0,stimuli/m1.png,stimuli/p4.png,right,m,1.0,m,0.5969356000005064,2.0,17.0,decision,205.0,305.0,415.0,530.0,660.0,700.0,1.9,1,0.5969356000005064,1.0,sub-002,P,low_OV,high_abs,low_OV_h_pain,high_abs_h_pain,1.9,1,1,0.9333333333333299,-0.0666666666666701,1.0
sub-002,p5,m4,,5,66000.0,stimuli/p5.png,stimuli/m4.png,right,m,1.0,m,0.5863202000000456,2.0,18.0,decision,205.0,305.0,415.0,530.0,660.0,700.0,1.9,4,0.5863202000000456,1.0,sub-002,P,high_OV,low_abs,h_OV_h_pain,low_abs_h_pain,1.9,4,4,1.166666666666662,-2.833333333333337,1.0
sub-002,p4,m3,,4,53000.0,stimuli/m3.png,stimuli/p4.png,right,m,1.0,m,0.6090944000006857,2.0,19.0,decision,205.0,305.0,415.0,530.0,660.0,700.0,1.8,3,0.6090944000006857,1.0,sub-002,P,high_OV,low_abs,h_OV_h_pain,low_abs_h_pain,1.8,3,3,0.9333333333333299,-2.06666666666667,1.0
sub-002,p3,m5,,3,41500.0,stimuli/p3.png,stimuli/m5.png,right,m,1.0,m,0.9539483999997174,2.0,20.0,decision,205.0,305.0,415.0,530.0,660.0,700.0,2.0,5,0.9539483999997174,1.0,sub-002,M,high_OV,mid_abs,h_OV_h_money,mid_abs,2.0,5,5,0.6999999999999974,-4.300000000000002,1.0
sub-002,p1,m2,,1,20500.0,stimuli/p1.png,stimuli/m2.png,right,m,1.0,m,1.0842507999986992,2.0,21.0,decision,205.0,305.0,415.0,530.0,660.0,700.0,1.7,2,1.0842507999986992,1.0,sub-002,M,low_OV,low_abs,low_OV_h_money,low_abs_h_money,1.7,2,2,0.2333333333333325,-1.766666666666667,1.0
sub-002,p1,m4,,1,20500.0,stimuli/p1.png,stimuli/m4.png,right,m,1.0,m,1.3102749000008769,2.0,22.0,decision,205.0,305.0,415.0,530.0,660.0,700.0,2.0,4,1.3102749000008769,1.0,sub-002,M,low_OV,high_abs,low_OV_h_money,high_abs_h_money,2.0,4,4,0.2333333333333325,-3.766666666666667,1.0
sub-002,p3,m2,,3,41500.0,stimuli/m2.png,stimuli/p3.png,right,m,1.0,m,0.6415235000004031,2.0,23.0,decision,205.0,305.0,415.0,530.0,660.0,700.0,1.5,2,0.6415235000004031,1.0,sub-002,P,low_OV,low_abs,low_OV_h_pain,low_abs_h_pain,1.5,2,2,0.6999999999999974,-1.300000000000002,1.0
sub-002,p5,m5,,5,66000.0,stimuli/p5.png,stimuli/m5.png,right,m,1.0,m,0.6709386999991693,2.0,24.0,decision,205.0,305.0,415.0,530.0,660.0,700.0,1.6,5,0.6709386999991693,1.0,sub-002,I,high_OV,low_abs,h_OV_h_pain,low_abs_h_pain,1.6,5,5,1.166666666666662,-3.833333333333337,1.0
sub-002,p3,m4,,3,41500.0,stimuli/m4.png,stimuli/p3.png,right,m,1.0,m,0.662922499999695,3.0,0.0,decision,205.0,305.0,415.0,530.0,660.0,700.0,1.5,4,0.662922499999695,1.0,sub-002,M,high_OV,low_abs,h_OV_h_money,low_abs_h_money,1.5,4,4,0.6999999999999974,-3.300000000000002,1.0
sub-002,p5,m3,,5,66000.0,stimuli/p5.png,stimuli/m3.png,right,m,1.0,m,0.6330360000010842,3.0,1.0,decision,205.0,305.0,415.0,530.0,660.0,700.0,1.7,3,0.6330360000010842,1.0,sub-002,P,high_OV,mid_abs,h_OV_h_pain,mid_abs,1.7,3,3,1.166666666666662,-1.833333333333338,1.0
sub-002,p3,m3,,3,41500.0,stimuli/p3.png,stimuli/m3.png,right,m,1.0,m,1.0968819999998232,3.0,2.0,decision,205.0,305.0,415.0,530.0,660.0,700.0,1.8,3,1.0968819999998232,1.0,sub-002,I,high_OV,low_abs,h_OV_h_pain,low_abs_h_pain,1.8,3,3,0.6999999999999974,-2.300000000000002,1.0
sub-002,p2,m3,,2,30500.0,stimuli/p2.png,stimuli/m3.png,right,m,1.0,m,0.8422852000003331,3.0,3.0,decision,205.0,305.0,415.0,530.0,660.0,700.0,1.6,3,0.8422852000003331,1.0,sub-002,M,low_OV,low_abs,low_OV_h_money,low_abs_h_money,1.6,3,3,0.466666666666665,-2.533333333333335,1.0
sub-002,p4,m1,,4,53000.0,stimuli/m1.png,stimuli/p4.png,right,m,1.0,m,1.1118544000000838,3.0,4.0,decision,205.0,305.0,415.0,530.0,660.0,700.0,1.7,1,1.1118544000000838,1.0,sub-002,P,low_OV,high_abs,low_OV_h_pain,high_abs_h_pain,1.7,1,1,0.9333333333333299,-0.0666666666666701,1.0
sub-002,p3,m5,,3,41500.0,stimuli/p3.png,stimuli/m5.png,right,m,1.0,m,0.9033259000007092,3.0,5.0,decision,205.0,305.0,415.0,530.0,660.0,700.0,1.9,5,0.9033259000007092,1.0,sub-002,M,high_OV,mid_abs,h_OV_h_money,mid_abs,1.9,5,5,0.6999999999999974,-4.300000000000002,1.0
sub-002,p1,m3,,1,20500.0,stimuli/p1.png,stimuli/m3.png,right,m,1.0,m,1.2235259000008227,3.0,6.0,decision,205.0,305.0,415.0,530.0,660.0,700.0,1.5,3,1.2235259000008227,1.0,sub-002,M,low_OV,mid_abs,low_OV_h_money,mid_abs,1.5,3,3,0.2333333333333325,-2.766666666666667,1.0
sub-002,p1,m5,,1,20500.0,stimuli/m5.png,stimuli/p1.png,right,m,1.0,m,0.7473749999990105,3.0,7.0,decision,205.0,305.0,415.0,530.0,660.0,700.0,1.9,5,0.7473749999990105,1.0,sub-002,M,high_OV,high_abs,h_OV_h_money,high_abs_h_money,1.9,5,5,0.2333333333333325,-4.766666666666667,1.0
sub-002,p4,m3,,4,53000.0,stimuli/m3.png,stimuli/p4.png,right,m,1.0,m,0.6583551999992778,3.0,8.0,decision,205.0,305.0,415.0,530.0,660.0,700.0,1.8,3,0.6583551999992778,1.0,sub-002,P,high_OV,low_abs,h_OV_h_pain,low_abs_h_pain,1.8,3,3,0.9333333333333299,-2.06666666666667,1.0
sub-002,p4,m2,,4,53000.0,stimuli/m2.png,stimuli/p4.png,right,m,1.0,m,1.0008488999992549,3.0,9.0,decision,205.0,305.0,415.0,530.0,660.0,700.0,1.7,2,1.0008488999992549,1.0,sub-002,P,high_OV,mid_abs,h_OV_h_pain,mid_abs,1.7,2,2,0.9333333333333299,-1.06666666666667,1.0
sub-002,p5,m5,,5,66000.0,stimuli/m5.png,stimuli/p5.png,right,m,1.0,m,0.7246494000009989,3.0,10.0,decision,205.0,305.0,415.0,530.0,660.0,700.0,2.0,5,0.7246494000009989,1.0,sub-002,I,high_OV,low_abs,h_OV_h_pain,low_abs_h_pain,2.0,5,5,1.166666666666662,-3.833333333333337,1.0
sub-002,p3,m1,,3,41500.0,stimuli/p3.png,stimuli/m1.png,right,m,1.0,m,0.9659451000006812,3.0,11.0,decision,205.0,305.0,415.0,530.0,660.0,700.0,2.0,1,0.9659451000006812,1.0,sub-002,P,low_OV,mid_abs,low_OV_h_pain,mid_abs,2.0,1,1,0.6999999999999974,-0.3000000000000026,1.0
sub-002,p2,m2,,2,30500.0,stimuli/p2.png,stimuli/m2.png,right,m,1.0,m,0.8002789999991364,3.0,12.0,decision,205.0,305.0,415.0,530.0,660.0,700.0,1.9,2,0.8002789999991364,1.0,sub-002,I,low_OV,low_abs,low_OV_h_pain,low_abs_h_pain,1.9,2,2,0.466666666666665,-1.533333333333335,1.0
sub-002,p5,m1,,5,66000.0,stimuli/p5.png,stimuli/m1.png,right,m,1.0,m,0.6502927999990789,3.0,13.0,decision,205.0,305.0,415.0,530.0,660.0,700.0,2.0,1,0.6502927999990789,1.0,sub-002,P,high_OV,high_abs,h_OV_h_pain,high_abs_h_pain,2.0,1,1,1.166666666666662,0.1666666666666623,1.0
sub-002,p2,m5,,2,30500.0,stimuli/m5.png,stimuli/p2.png,right,m,1.0,m,0.6896688999986509,3.0,14.0,decision,205.0,305.0,415.0,530.0,660.0,700.0,2.0,5,0.6896688999986509,1.0,sub-002,M,high_OV,high_abs,h_OV_h_money,high_abs_h_money,2.0,5,5,0.466666666666665,-4.533333333333335,1.0
sub-002,p4,m4,,4,53000.0,stimuli/p4.png,stimuli/m4.png,right,m,1.0,m,1.1721199000003253,3.0,15.0,decision,205.0,305.0,415.0,530.0,660.0,700.0,1.8,4,1.1721199000003253,1.0,sub-002,I,high_OV,low_abs,h_OV_h_pain,low_abs_h_pain,1.8,4,4,0.9333333333333299,-3.06666666666667,1.0
sub-002,p2,m1,,2,30500.0,stimuli/m1.png,stimuli/p2.png,right,m,1.0,m,0.5866513000000849,3.0,16.0,decision,205.0,305.0,415.0,530.0,660.0,700.0,1.5,1,0.5866513000000849,1.0,sub-002,P,low_OV,low_abs,low_OV_h_pain,low_abs_h_pain,1.5,1,1,0.466666666666665,-0.533333333333335,1.0
sub-002,p3,m2,,3,41500.0,stimuli/m2.png,stimuli/p3.png,right,m,1.0,m,0.7892116999992141,3.0,17.0,decision,205.0,305.0,415.0,530.0,660.0,700.0,1.7,2,0.7892116999992141,1.0,sub-002,P,low_OV,low_abs,low_OV_h_pain,low_abs_h_pain,1.7,2,2,0.6999999999999974,-1.300000000000002,1.0
sub-002,p1,m2,,1,20500.0,stimuli/p1.png,stimuli/m2.png,right,m,1.0,m,0.5667936999998346,3.0,18.0,decision,205.0,305.0,415.0,530.0,660.0,700.0,1.6,2,0.5667936999998346,1.0,sub-002,M,low_OV,low_abs,low_OV_h_money,low_abs_h_money,1.6,2,2,0.2333333333333325,-1.766666666666667,1.0
sub-002,p2,m4,,2,30500.0,stimuli/p2.png,stimuli/m4.png,right,m,1.0,m,0.4936348999999609,3.0,19.0,decision,205.0,305.0,415.0,530.0,660.0,700.0,1.7,4,0.4936348999999609,1.0,sub-002,M,high_OV,mid_abs,h_OV_h_money,mid_abs,1.7,4,4,0.466666666666665,-3.533333333333335,1.0
sub-002,p5,m2,,5,66000.0,stimuli/m2.png,stimuli/p5.png,right,m,1.0,m,0.809183800000028,3.0,20.0,decision,205.0,305.0,415.0,530.0,660.0,700.0,1.5,2,0.809183800000028,1.0,sub-002,P,high_OV,high_abs,h_OV_h_pain,high_abs_h_pain,1.5,2,2,1.166666666666662,-0.8333333333333377,1.0
sub-002,p4,m5,,4,53000.0,stimuli/p4.png,stimuli/m5.png,right,m,1.0,m,1.0006483000015578,3.0,21.0,decision,205.0,305.0,415.0,530.0,660.0,700.0,1.8,5,1.0006483000015578,1.0,sub-002,M,high_OV,low_abs,h_OV_h_money,low_abs_h_money,1.8,5,5,0.9333333333333299,-4.06666666666667,1.0
sub-002,p1,m4,,1,20500.0,stimuli/m4.png,stimuli/p1.png,right,m,1.0,m,0.7201496999987285,3.0,22.0,decision,205.0,305.0,415.0,530.0,660.0,700.0,2.0,4,0.7201496999987285,1.0,sub-002,M,low_OV,high_abs,low_OV_h_money,high_abs_h_money,2.0,4,4,0.2333333333333325,-3.766666666666667,1.0
sub-002,p5,m4,,5,66000.0,stimuli/p5.png,stimuli/m4.png,right,m,1.0,m,0.7082707999998092,3.0,23.0,decision,205.0,305.0,415.0,530.0,660.0,700.0,1.8,4,0.7082707999998092,1.0,sub-002,P,high_OV,low_abs,h_OV_h_pain,low_abs_h_pain,1.8,4,4,1.166666666666662,-2.833333333333337,1.0
sub-002,p1,m1,,1,20500.0,stimuli/p1.png,stimuli/m1.png,right,m,1.0,m,0.7113503000000492,3.0,24.0,decision,205.0,305.0,415.0,530.0,660.0,700.0,1.9,1,0.7113503000000492,1.0,sub-002,I,low_OV,low_abs,low_OV_h_pain,low_abs_h_pain,1.9,1,1,0.2333333333333325,-0.7666666666666675,1.0
sub-002,p4,m1,,4,53000.0,stimuli/m1.png,stimuli/p4.png,right,m,1.0,m,0.8221876999996311,4.0,0.0,decision,205.0,305.0,415.0,530.0,660.0,700.0,1.5,1,0.8221876999996311,1.0,sub-002,P,low_OV,high_abs,low_OV_h_pain,high_abs_h_pain,1.5,1,1,0.9333333333333299,-0.0666666666666701,1.0
sub-002,p1,m4,,1,20500.0,stimuli/m4.png,stimuli/p1.png,right,m,1.0,m,1.2261822999989818,4.0,1.0,decision,205.0,305.0,415.0,530.0,660.0,700.0,1.8,4,1.2261822999989818,1.0,sub-002,M,low_OV,high_abs,low_OV_h_money,high_abs_h_money,1.8,4,4,0.2333333333333325,-3.766666666666667,1.0
sub-002,p3,m5,,3,41500.0,stimuli/p3.png,stimuli/m5.png,right,m,1.0,m,0.7069886000008408,4.0,2.0,decision,205.0,305.0,415.0,530.0,660.0,700.0,2.0,5,0.7069886000008408,1.0,sub-002,M,high_OV,mid_abs,h_OV_h_money,mid_abs,2.0,5,5,0.6999999999999974,-4.300000000000002,1.0
sub-002,p5,m3,,5,66000.0,stimuli/p5.png,stimuli/m3.png,right,m,1.0,m,0.6646188000013353,4.0,3.0,decision,205.0,305.0,415.0,530.0,660.0,700.0,1.7,3,0.6646188000013353,1.0,sub-002,P,high_OV,mid_abs,h_OV_h_pain,mid_abs,1.7,3,3,1.166666666666662,-1.833333333333338,1.0
sub-002,p5,m4,,5,66000.0,stimuli/p5.png,stimuli/m4.png,right,m,1.0,m,1.0719834999999875,4.0,4.0,decision,205.0,305.0,415.0,530.0,660.0,700.0,1.7,4,1.0719834999999875,1.0,sub-002,P,high_OV,low_abs,h_OV_h_pain,low_abs_h_pain,1.7,4,4,1.166666666666662,-2.833333333333337,1.0
sub-002,p3,m3,,3,41500.0,stimuli/m3.png,stimuli/p3.png,right,m,1.0,m,0.6301718000013352,4.0,5.0,decision,205.0,305.0,415.0,530.0,660.0,700.0,1.7,3,0.6301718000013352,1.0,sub-002,I,high_OV,low_abs,h_OV_h_pain,low_abs_h_pain,1.7,3,3,0.6999999999999974,-2.300000000000002,1.0
sub-002,p5,m1,,5,66000.0,stimuli/p5.png,stimuli/m1.png,right,m,1.0,m,0.6467382999999245,4.0,6.0,decision,205.0,305.0,415.0,530.0,660.0,700.0,1.9,1,0.6467382999999245,1.0,sub-002,P,high_OV,high_abs,h_OV_h_pain,high_abs_h_pain,1.9,1,1,1.166666666666662,0.1666666666666623,1.0
sub-002,p4,m4,,4,53000.0,stimuli/p4.png,stimuli/m4.png,right,m,1.0,m,1.1031271000010747,4.0,7.0,decision,205.0,305.0,415.0,530.0,660.0,700.0,1.6,4,1.1031271000010747,1.0,sub-002,I,high_OV,low_abs,h_OV_h_pain,low_abs_h_pain,1.6,4,4,0.9333333333333299,-3.06666666666667,1.0
sub-002,p2,m3,,2,30500.0,stimuli/p2.png,stimuli/m3.png,right,m,1.0,m,1.1210179999998218,4.0,8.0,decision,205.0,305.0,415.0,530.0,660.0,700.0,1.6,3,1.1210179999998218,1.0,sub-002,M,low_OV,low_abs,low_OV_h_money,low_abs_h_money,1.6,3,3,0.466666666666665,-2.533333333333335,1.0
sub-002,p2,m2,,2,30500.0,stimuli/p2.png,stimuli/m2.png,right,m,1.0,m,0.9959436999997706,4.0,9.0,decision,205.0,305.0,415.0,530.0,660.0,700.0,1.8,2,0.9959436999997706,1.0,sub-002,I,low_OV,low_abs,low_OV_h_pain,low_abs_h_pain,1.8,2,2,0.466666666666665,-1.533333333333335,1.0
sub-002,p3,m4,,3,41500.0,stimuli/m4.png,stimuli/p3.png,right,m,1.0,m,1.0130503000000315,4.0,10.0,decision,205.0,305.0,415.0,530.0,660.0,700.0,1.5,4,1.0130503000000315,1.0,sub-002,M,high_OV,low_abs,h_OV_h_money,low_abs_h_money,1.5,4,4,0.6999999999999974,-3.300000000000002,1.0
sub-002,p4,m2,,4,53000.0,stimuli/m2.png,stimuli/p4.png,right,m,1.0,m,0.5697804999999789,4.0,11.0,decision,205.0,305.0,415.0,530.0,660.0,700.0,2.0,2,0.5697804999999789,1.0,sub-002,P,high_OV,mid_abs,h_OV_h_pain,mid_abs,2.0,2,2,0.9333333333333299,-1.06666666666667,1.0
sub-002,p3,m2,,3,41500.0,stimuli/m2.png,stimuli/p3.png,right,m,1.0,m,0.9230928999986644,4.0,12.0,decision,205.0,305.0,415.0,530.0,660.0,700.0,2.0,2,0.9230928999986644,1.0,sub-002,P,low_OV,low_abs,low_OV_h_pain,low_abs_h_pain,2.0,2,2,0.6999999999999974,-1.300000000000002,1.0
sub-002,p2,m1,,2,30500.0,stimuli/m1.png,stimuli/p2.png,right,m,1.0,m,0.9011984000007942,4.0,13.0,decision,205.0,305.0,415.0,530.0,660.0,700.0,1.9,1,0.9011984000007942,1.0,sub-002,P,low_OV,low_abs,low_OV_h_pain,low_abs_h_pain,1.9,1,1,0.466666666666665,-0.533333333333335,1.0
sub-002,p3,m1,,3,41500.0,stimuli/p3.png,stimuli/m1.png,right,m,1.0,m,0.9795821999996406,4.0,14.0,decision,205.0,305.0,415.0,530.0,660.0,700.0,1.9,1,0.9795821999996406,1.0,sub-002,P,low_OV,mid_abs,low_OV_h_pain,mid_abs,1.9,1,1,0.6999999999999974,-0.3000000000000026,1.0
sub-002,p1,m5,,1,20500.0,stimuli/p1.png,stimuli/m5.png,right,m,1.0,m,0.7467195999997784,4.0,15.0,decision,205.0,305.0,415.0,530.0,660.0,700.0,1.5,5,0.7467195999997784,1.0,sub-002,M,high_OV,high_abs,h_OV_h_money,high_abs_h_money,1.5,5,5,0.2333333333333325,-4.766666666666667,1.0
sub-002,p2,m4,,2,30500.0,stimuli/p2.png,stimuli/m4.png,right,m,1.0,m,0.7862592000001314,4.0,16.0,decision,205.0,305.0,415.0,530.0,660.0,700.0,1.5,4,0.7862592000001314,1.0,sub-002,M,high_OV,mid_abs,h_OV_h_money,mid_abs,1.5,4,4,0.466666666666665,-3.533333333333335,1.0
sub-002,p5,m2,,5,66000.0,stimuli/p5.png,stimuli/m2.png,right,m,1.0,m,1.383328199999596,4.0,17.0,decision,205.0,305.0,415.0,530.0,660.0,700.0,2.0,2,1.383328199999596,1.0,sub-002,P,high_OV,high_abs,h_OV_h_pain,high_abs_h_pain,2.0,2,2,1.166666666666662,-0.8333333333333377,1.0
sub-002,p2,m5,,2,30500.0,stimuli/m5.png,stimuli/p2.png,right,m,1.0,m,0.8680178999984491,4.0,18.0,decision,205.0,305.0,415.0,530.0,660.0,700.0,2.0,5,0.8680178999984491,1.0,sub-002,M,high_OV,high_abs,h_OV_h_money,high_abs_h_money,2.0,5,5,0.466666666666665,-4.533333333333335,1.0
sub-002,p4,m5,,4,53000.0,stimuli/m5.png,stimuli/p4.png,right,m,1.0,m,0.8522302000001218,4.0,19.0,decision,205.0,305.0,415.0,530.0,660.0,700.0,1.8,5,0.8522302000001218,1.0,sub-002,M,high_OV,low_abs,h_OV_h_money,low_abs_h_money,1.8,5,5,0.9333333333333299,-4.06666666666667,1.0
sub-002,p1,m3,,1,20500.0,stimuli/p1.png,stimuli/m3.png,right,m,1.0,m,1.2107565000005711,4.0,20.0,decision,205.0,305.0,415.0,530.0,660.0,700.0,1.6,3,1.2107565000005711,1.0,sub-002,M,low_OV,mid_abs,low_OV_h_money,mid_abs,1.6,3,3,0.2333333333333325,-2.766666666666667,1.0
sub-002,p5,m5,,5,66000.0,stimuli/m5.png,stimuli/p5.png,right,m,1.0,m,0.7517984999994951,4.0,21.0,decision,205.0,305.0,415.0,530.0,660.0,700.0,1.9,5,0.7517984999994951,1.0,sub-002,I,high_OV,low_abs,h_OV_h_pain,low_abs_h_pain,1.9,5,5,1.166666666666662,-3.833333333333337,1.0
sub-002,p1,m2,,1,20500.0,stimuli/m2.png,stimuli/p1.png,right,m,1.0,m,0.7093295999984548,4.0,22.0,decision,205.0,305.0,415.0,530.0,660.0,700.0,1.9,2,0.7093295999984548,1.0,sub-002,M,low_OV,low_abs,low_OV_h_money,low_abs_h_money,1.9,2,2,0.2333333333333325,-1.766666666666667,1.0
sub-002,p1,m1,,1,20500.0,stimuli/m1.png,stimuli/p1.png,right,m,1.0,m,0.5869326000010915,4.0,23.0,decision,205.0,305.0,415.0,530.0,660.0,700.0,2.0,1,0.5869326000010915,1.0,sub-002,I,low_OV,low_abs,low_OV_h_pain,low_abs_h_pain,2.0,1,1,0.2333333333333325,-0.7666666666666675,1.0
sub-002,p4,m3,,4,53000.0,stimuli/p4.png,stimuli/m3.png,right,m,1.0,m,0.8535441999993054,4.0,24.0,decision,205.0,305.0,415.0,530.0,660.0,700.0,2.0,3,0.8535441999993054,1.0,sub-002,P,high_OV,low_abs,h_OV_h_pain,low_abs_h_pain,2.0,3,3,0.9333333333333299,-2.06666666666667,1.0
sub-004,p5,m4,,5,7000.0,stimuli/m4.png,stimuli/p5.png,right,m,1.0,m,1.7301915000007284,0.0,1.0,decision,25.0,35.0,45.0,55.0,70.0,700.0,1.6,4,1.7301915000007284,1.0,sub-004,P,high_OV,low_abs,h_OV_h_pain,low_abs_h_pain,1.6,4,4,3.693355482275162,-0.3066445177248376,0.9960467837695279
sub-004,p3,m3,,3,4500.0,stimuli/p3.png,stimuli/m3.png,right,m,1.0,m,1.1684452000008605,0.0,2.0,decision,25.0,35.0,45.0,55.0,70.0,700.0,1.7,3,1.1684452000008605,1.0,sub-004,I,high_OV,low_abs,h_OV_h_pain,low_abs_h_pain,1.7,3,3,2.216013289365097,-0.7839867106349026,0.9989500607891387
sub-004,p4,m3,,4,5500.0,stimuli/p4.png,stimuli/m3.png,right,m,1.0,m,1.5461812000012287,0.0,3.0,decision,25.0,35.0,45.0,55.0,70.0,700.0,2.0,3,1.5461812000012287,1.0,sub-004,P,high_OV,low_abs,h_OV_h_pain,low_abs_h_pain,2.0,3,3,2.95468438582013,-0.04531561417987007,0.9918523250632024
sub-004,p2,m3,,2,3500.0,stimuli/m3.png,stimuli/p2.png,right,m,1.0,m,1.4278101999989303,0.0,4.0,decision,25.0,35.0,45.0,55.0,70.0,700.0,1.5,3,1.4278101999989303,1.0,sub-004,M,low_OV,low_abs,low_OV_h_money,low_abs_h_money,1.5,3,3,1.477342192910065,-1.522657807089935,0.999865539204202
sub-004,p4,m4,,4,5500.0,stimuli/m4.png,stimuli/p4.png,right,m,1.0,m,0.8169334000012896,0.0,5.0,decision,25.0,35.0,45.0,55.0,70.0,700.0,1.6,4,0.8169334000012896,1.0,sub-004,I,high_OV,low_abs,h_OV_h_pain,low_abs_h_pain,1.6,4,4,2.95468438582013,-1.04531561417987,0.9994924439056531
sub-004,p3,m2,,3,4500.0,stimuli/p3.png,stimuli/m2.png,right,m,1.0,m,2.1770488000020123,0.0,6.0,decision,25.0,35.0,45.0,55.0,70.0,700.0,2.0,2,2.1770488000020123,1.0,sub-004,P,low_OV,low_abs,low_OV_h_pain,low_abs_h_pain,2.0,2,2,2.216013289365097,0.2160132893650974,0.9832821403452353
sub-004,p3,m5,,3,4500.0,stimuli/m5.png,stimuli/p3.png,right,m,1.0,m,1.2978426999998192,0.0,7.0,decision,25.0,35.0,45.0,55.0,70.0,700.0,1.7,5,1.2978426999998192,1.0,sub-004,M,high_OV,mid_abs,h_OV_h_money,mid_abs,1.7,5,5,2.216013289365097,-2.783986710634903,0.9999959834392504
sub-004,p1,m2,,1,2500.0,stimuli/m2.png,stimuli/p1.png,right,m,1.0,m,1.7638176000018575,0.0,8.0,decision,25.0,35.0,45.0,55.0,70.0,700.0,1.7,2,1.7638176000018575,1.0,sub-004,M,low_OV,low_abs,low_OV_h_money,low_abs_h_money,1.7,2,2,0.7386710964550325,-1.261328903544968,0.9997217411028375
sub-004,p4,m2,,4,5500.0,stimuli/m2.png,stimuli/p4.png,right,m,0.0,n,2.0673202999987548,0.0,9.0,decision,25.0,35.0,45.0,55.0,70.0,700.0,1.6,2,-2.0673202999987548,0.0,sub-004,P,high_OV,mid_abs,h_OV_h_pain,mid_abs,1.6,2,2,2.95468438582013,0.9546843858201299,0.8827038290249037
sub-004,p4,m5,,4,5500.0,stimuli/p4.png,stimuli/m5.png,right,m,1.0,m,1.2359462999993411,0.0,10.0,decision,25.0,35.0,45.0,55.0,70.0,700.0,2.0,5,1.2359462999993411,1.0,sub-004,M,high_OV,low_abs,h_OV_h_money,low_abs_h_money,2.0,5,5,2.95468438582013,-2.04531561417987,0.9999686087397286
sub-004,p5,m1,,5,7000.0,stimuli/m1.png,stimuli/p5.png,right,m,1.0,m,1.3500662000005832,0.0,11.0,decision,25.0,35.0,45.0,55.0,70.0,700.0,1.8,1,1.3500662000005832,1.0,sub-004,P,high_OV,high_abs,h_OV_h_pain,high_abs_h_pain,1.8,1,1,3.693355482275162,2.693355482275162,0.05617879974959638
sub-004,p5,m5,,5,7000.0,stimuli/p5.png,stimuli/m5.png,right,m,1.0,m,1.1315730000005717,0.0,12.0,decision,25.0,35.0,45.0,55.0,70.0,700.0,1.9,5,1.1315730000005717,1.0,sub-004,I,high_OV,low_abs,h_OV_h_pain,low_abs_h_pain,1.9,5,5,3.693355482275162,-1.306644517724838,0.9997547087005197
sub-004,p1,m4,,1,2500.0,stimuli/p1.png,stimuli/m4.png,right,m,1.0,m,1.0449235000014596,0.0,13.0,decision,25.0,35.0,45.0,55.0,70.0,700.0,1.7,4,1.0449235000014596,1.0,sub-004,M,low_OV,high_abs,low_OV_h_money,high_abs_h_money,1.7,4,4,0.7386710964550325,-3.261328903544968,0.9999989363342686
sub-004,p5,m2,,5,7000.0,stimuli/p5.png,stimuli/m2.png,right,m,0.0,n,2.1598057999999583,0.0,14.0,decision,25.0,35.0,45.0,55.0,70.0,700.0,1.5,2,-2.1598057999999583,0.0,sub-004,P,high_OV,high_abs,h_OV_h_pain,high_abs_h_pain,1.5,2,2,3.693355482275162,1.693355482275162,0.4905403102305848
sub-004,p2,m1,,2,3500.0,stimuli/m1.png,stimuli/p2.png,right,m,1.0,m,1.6354921000020113,0.0,15.0,decision,25.0,35.0,45.0,55.0,70.0,700.0,1.8,1,1.6354921000020113,1.0,sub-004,P,low_OV,low_abs,low_OV_h_pain,low_abs_h_pain,1.8,1,1,1.477342192910065,0.477342192910065,0.9660063082195279
sub-004,p2,m5,,2,3500.0,stimuli/m5.png,stimuli/p2.png,right,m,1.0,m,1.17842980000205,0.0,16.0,decision,25.0,35.0,45.0,55.0,70.0,700.0,2.0,5,1.17842980000205,1.0,sub-004,M,high_OV,high_abs,h_OV_h_money,high_abs_h_money,2.0,5,5,1.477342192910065,-3.522657807089935,0.9999994860870512
sub-004,p3,m1,,3,4500.0,stimuli/m1.png,stimuli/p3.png,right,m,0.0,n,1.8013424999990093,0.0,17.0,decision,25.0,35.0,45.0,55.0,70.0,700.0,1.8,1,-1.8013424999990093,0.0,sub-004,P,low_OV,mid_abs,low_OV_h_pain,mid_abs,1.8,1,1,2.216013289365097,1.216013289365097,0.7842934788945191
sub-004,p2,m4,,2,3500.0,stimuli/p2.png,stimuli/m4.png,right,m,1.0,m,1.7335461000002397,0.0,18.0,decision,25.0,35.0,45.0,55.0,70.0,700.0,1.9,4,1.7335461000002397,1.0,sub-004,M,high_OV,mid_abs,h_OV_h_money,mid_abs,1.9,4,4,1.477342192910065,-2.522657807089935,0.9999916867982602
sub-004,p2,m2,,2,3500.0,stimuli/m2.png,stimuli/p2.png,right,m,1.0,m,1.0072597000016683,0.0,19.0,decision,25.0,35.0,45.0,55.0,70.0,700.0,1.8,2,1.0072597000016683,1.0,sub-004,I,low_OV,low_abs,low_OV_h_pain,low_abs_h_pain,1.8,2,2,1.477342192910065,-0.522657807089935,0.9978293365601622
sub-004,p3,m4,,3,4500.0,stimuli/p3.png,stimuli/m4.png,right,m,1.0,m,1.244680800000424,0.0,20.0,decision,25.0,35.0,45.0,55.0,70.0,700.0,1.6,4,1.244680800000424,1.0,sub-004,M,high_OV,low_abs,h_OV_h_money,low_abs_h_money,1.6,4,4,2.216013289365097,-1.783986710634903,0.9999350304267605
sub-004,p5,m3,,5,7000.0,stimuli/p5.png,stimuli/m3.png,right,m,1.0,m,1.2778207999999722,0.0,21.0,decision,25.0,35.0,45.0,55.0,70.0,700.0,2.0,3,1.2778207999999722,1.0,sub-004,P,high_OV,mid_abs,h_OV_h_pain,mid_abs,2.0,3,3,3.693355482275162,0.6933554822751624,0.9396706506745737
sub-004,p1,m5,,1,2500.0,stimuli/m5.png,stimuli/p1.png,right,m,1.0,m,1.0526995000000172,0.0,22.0,decision,25.0,35.0,45.0,55.0,70.0,700.0,1.5,5,1.0526995000000172,1.0,sub-004,M,high_OV,high_abs,h_OV_h_money,high_abs_h_money,1.5,5,5,0.7386710964550325,-4.261328903544968,0.9999999342458067
sub-004,p4,m1,,4,5500.0,stimuli/p4.png,stimuli/m1.png,right,m,0.0,n,1.7689074000008986,0.0,23.0,decision,25.0,35.0,45.0,55.0,70.0,700.0,1.5,1,-1.7689074000008986,0.0,sub-004,P,low_OV,high_abs,low_OV_h_pain,high_abs_h_pain,1.5,1,1,2.95468438582013,1.95468438582013,0.3175039691099049
sub-004,p1,m3,,1,2500.0,stimuli/m3.png,stimuli/p1.png,right,m,1.0,m,1.1898421999994753,0.0,24.0,decision,25.0,35.0,45.0,55.0,70.0,700.0,1.7,3,1.1898421999994753,1.0,sub-004,M,low_OV,mid_abs,low_OV_h_money,mid_abs,1.7,3,3,0.7386710964550325,-2.261328903544968,0.9999827939847474
sub-004,p1,m4,,1,2500.0,stimuli/p1.png,stimuli/m4.png,right,m,1.0,m,1.3538705999999363,1.0,0.0,decision,25.0,35.0,45.0,55.0,70.0,700.0,2.0,4,1.3538705999999363,1.0,sub-004,M,low_OV,high_abs,low_OV_h_money,high_abs_h_money,2.0,4,4,0.7386710964550325,-3.261328903544968,0.9999989363342686
sub-004,p2,m3,,2,3500.0,stimuli/m3.png,stimuli/p2.png,right,m,1.0,m,1.3586207999996986,1.0,1.0,decision,25.0,35.0,45.0,55.0,70.0,700.0,2.0,3,1.3586207999996986,1.0,sub-004,M,low_OV,low_abs,low_OV_h_money,low_abs_h_money,2.0,3,3,1.477342192910065,-1.522657807089935,0.999865539204202
sub-004,p3,m3,,3,4500.0,stimuli/p3.png,stimuli/m3.png,right,m,1.0,m,0.8449774999990041,1.0,2.0,decision,25.0,35.0,45.0,55.0,70.0,700.0,1.7,3,0.8449774999990041,1.0,sub-004,I,high_OV,low_abs,h_OV_h_pain,low_abs_h_pain,1.7,3,3,2.216013289365097,-0.7839867106349026,0.9989500607891387
sub-004,p4,m4,,4,5500.0,stimuli/m4.png,stimuli/p4.png,right,m,1.0,m,0.8607930999987728,1.0,3.0,decision,25.0,35.0,45.0,55.0,70.0,700.0,1.7,4,0.8607930999987728,1.0,sub-004,I,high_OV,low_abs,h_OV_h_pain,low_abs_h_pain,1.7,4,4,2.95468438582013,-1.04531561417987,0.9994924439056531
sub-004,p1,m5,,1,2500.0,stimuli/p1.png,stimuli/m5.png,right,m,1.0,m,1.3498227000000045,1.0,4.0,decision,25.0,35.0,45.0,55.0,70.0,700.0,1.6,5,1.3498227000000045,1.0,sub-004,M,high_OV,high_abs,h_OV_h_money,high_abs_h_money,1.6,5,5,0.7386710964550325,-4.261328903544968,0.9999999342458067
sub-004,p2,m1,,2,3500.0,stimuli/p2.png,stimuli/m1.png,right,m,1.0,m,2.700657200000933,1.0,5.0,decision,25.0,35.0,45.0,55.0,70.0,700.0,1.9,1,2.700657200000933,1.0,sub-004,P,low_OV,low_abs,low_OV_h_pain,low_abs_h_pain,1.9,1,1,1.477342192910065,0.477342192910065,0.9660063082195279
sub-004,p5,m5,,5,7000.0,stimuli/m5.png,stimuli/p5.png,right,m,1.0,m,0.8970133000002534,1.0,6.0,decision,25.0,35.0,45.0,55.0,70.0,700.0,1.5,5,0.8970133000002534,1.0,sub-004,I,high_OV,low_abs,h_OV_h_pain,low_abs_h_pain,1.5,5,5,3.693355482275162,-1.306644517724838,0.9997547087005197
sub-004,p4,m3,,4,5500.0,stimuli/m3.png,stimuli/p4.png,right,m,1.0,m,1.3868420000017068,1.0,7.0,decision,25.0,35.0,45.0,55.0,70.0,700.0,1.8,3,1.3868420000017068,1.0,sub-004,P,high_OV,low_abs,h_OV_h_pain,low_abs_h_pain,1.8,3,3,2.95468438582013,-0.04531561417987007,0.9918523250632024
sub-004,p1,m2,,1,2500.0,stimuli/m2.png,stimuli/p1.png,right,m,1.0,m,1.1734837000003608,1.0,8.0,decision,25.0,35.0,45.0,55.0,70.0,700.0,1.9,2,1.1734837000003608,1.0,sub-004,M,low_OV,low_abs,low_OV_h_money,low_abs_h_money,1.9,2,2,0.7386710964550325,-1.261328903544968,0.9997217411028375
sub-004,p3,m4,,3,4500.0,stimuli/p3.png,stimuli/m4.png,right,m,1.0,m,1.1152976000012131,1.0,9.0,decision,25.0,35.0,45.0,55.0,70.0,700.0,1.9,4,1.1152976000012131,1.0,sub-004,M,high_OV,low_abs,h_OV_h_money,low_abs_h_money,1.9,4,4,2.216013289365097,-1.783986710634903,0.9999350304267605
sub-004,p5,m2,,5,7000.0,stimuli/p5.png,stimuli/m2.png,right,m,0.0,n,1.4175247000002855,1.0,10.0,decision,25.0,35.0,45.0,55.0,70.0,700.0,2.0,2,-1.4175247000002855,0.0,sub-004,P,high_OV,high_abs,h_OV_h_pain,high_abs_h_pain,2.0,2,2,3.693355482275162,1.693355482275162,0.4905403102305848
sub-004,p4,m1,,4,5500.0,stimuli/p4.png,stimuli/m1.png,right,m,0.0,n,1.6560908000010386,1.0,11.0,decision,25.0,35.0,45.0,55.0,70.0,700.0,1.7,1,-1.6560908000010386,0.0,sub-004,P,low_OV,high_abs,low_OV_h_pain,high_abs_h_pain,1.7,1,1,2.95468438582013,1.95468438582013,0.3175039691099049
sub-004,p4,m5,,4,5500.0,stimuli/m5.png,stimuli/p4.png,right,m,1.0,m,1.6821669000019028,1.0,12.0,decision,25.0,35.0,45.0,55.0,70.0,700.0,1.5,5,1.6821669000019028,1.0,sub-004,M,high_OV,low_abs,h_OV_h_money,low_abs_h_money,1.5,5,5,2.95468438582013,-2.04531561417987,0.9999686087397286
sub-004,p3,m2,,3,4500.0,stimuli/p3.png,stimuli/m2.png,right,m,1.0,m,2.1055408000011084,1.0,13.0,decision,25.0,35.0,45.0,55.0,70.0,700.0,1.6,2,2.1055408000011084,1.0,sub-004,P,low_OV,low_abs,low_OV_h_pain,low_abs_h_pain,1.6,2,2,2.216013289365097,0.2160132893650974,0.9832821403452353
sub-004,p5,m4,,5,7000.0,stimuli/p5.png,stimuli/m4.png,right,m,1.0,m,1.3623618000001445,1.0,14.0,decision,25.0,35.0,45.0,55.0,70.0,700.0,1.5,4,1.3623618000001445,1.0,sub-004,P,high_OV,low_abs,h_OV_h_pain,low_abs_h_pain,1.5,4,4,3.693355482275162,-0.3066445177248376,0.9960467837695279
sub-004,p1,m3,,1,2500.0,stimuli/p1.png,stimuli/m3.png,right,m,1.0,m,1.0964609000020569,1.0,15.0,decision,25.0,35.0,45.0,55.0,70.0,700.0,2.0,3,1.0964609000020569,1.0,sub-004,M,low_OV,mid_abs,low_OV_h_money,mid_abs,2.0,3,3,0.7386710964550325,-2.261328903544968,0.9999827939847474
sub-004,p2,m2,,2,3500.0,stimuli/m2.png,stimuli/p2.png,right,m,1.0,m,0.7444066999996721,1.0,16.0,decision,25.0,35.0,45.0,55.0,70.0,700.0,2.0,2,0.7444066999996721,1.0,sub-004,I,low_OV,low_abs,low_OV_h_pain,low_abs_h_pain,2.0,2,2,1.477342192910065,-0.522657807089935,0.9978293365601622
sub-004,p1,m1,,1,2500.0,stimuli/p1.png,stimuli/m1.png,right,m,1.0,m,0.7451733000016247,1.0,17.0,decision,25.0,35.0,45.0,55.0,70.0,700.0,1.8,1,0.7451733000016247,1.0,sub-004,I,low_OV,low_abs,low_OV_h_pain,low_abs_h_pain,1.8,1,1,0.7386710964550325,-0.2613289035449675,0.9955176986149258
sub-004,p3,m5,,3,4500.0,stimuli/p3.png,stimuli/m5.png,right,m,1.0,m,1.1377515000003768,1.0,18.0,decision,25.0,35.0,45.0,55.0,70.0,700.0,2.0,5,1.1377515000003768,1.0,sub-004,M,high_OV,mid_abs,h_OV_h_money,mid_abs,2.0,5,5,2.216013289365097,-2.783986710634903,0.9999959834392504
sub-004,p4,m2,,4,5500.0,stimuli/p4.png,stimuli/m2.png,right,m,1.0,m,1.4422255999998017,1.0,19.0,decision,25.0,35.0,45.0,55.0,70.0,700.0,1.7,2,1.4422255999998017,1.0,sub-004,P,high_OV,mid_abs,h_OV_h_pain,mid_abs,1.7,2,2,2.95468438582013,0.9546843858201299,0.8827038290249037
sub-004,p5,m1,,5,7000.0,stimuli/p5.png,stimuli/m1.png,right,m,0.0,n,1.2256261000002269,1.0,20.0,decision,25.0,35.0,45.0,55.0,70.0,700.0,2.0,1,-1.2256261000002269,0.0,sub-004,P,high_OV,high_abs,h_OV_h_pain,high_abs_h_pain,2.0,1,1,3.693355482275162,2.693355482275162,0.05617879974959638
sub-004,p5,m3,,5,7000.0,stimuli/m3.png,stimuli/p5.png,right,m,1.0,m,1.113462500001333,1.0,21.0,decision,25.0,35.0,45.0,55.0,70.0,700.0,1.5,3,1.113462500001333,1.0,sub-004,P,high_OV,mid_abs,h_OV_h_pain,mid_abs,1.5,3,3,3.693355482275162,0.6933554822751624,0.9396706506745737
sub-004,p2,m4,,2,3500.0,stimuli/m4.png,stimuli/p2.png,right,m,1.0,m,2.36951819999922,1.0,22.0,decision,25.0,35.0,45.0,55.0,70.0,700.0,1.8,4,2.36951819999922,1.0,sub-004,M,high_OV,mid_abs,h_OV_h_money,mid_abs,1.8,4,4,1.477342192910065,-2.522657807089935,0.9999916867982602
sub-004,p2,m5,,2,3500.0,stimuli/m5.png,stimuli/p2.png,right,m,1.0,m,1.3072464000015316,1.0,23.0,decision,25.0,35.0,45.0,55.0,70.0,700.0,1.8,5,1.3072464000015316,1.0,sub-004,M,high_OV,high_abs,h_OV_h_money,high_abs_h_money,1.8,5,5,1.477342192910065,-3.522657807089935,0.9999994860870512
sub-004,p3,m1,,3,4500.0,stimuli/p3.png,stimuli/m1.png,right,m,1.0,m,1.83803060000173,1.0,24.0,decision,25.0,35.0,45.0,55.0,70.0,700.0,1.6,1,1.83803060000173,1.0,sub-004,P,low_OV,mid_abs,low_OV_h_pain,mid_abs,1.6,1,1,2.216013289365097,1.216013289365097,0.7842934788945191
sub-004,p1,m2,,1,2500.0,stimuli/m2.png,stimuli/p1.png,right,m,1.0,m,1.491417300001558,2.0,0.0,decision,25.0,35.0,45.0,55.0,70.0,700.0,1.6,2,1.491417300001558,1.0,sub-004,M,low_OV,low_abs,low_OV_h_money,low_abs_h_money,1.6,2,2,0.7386710964550325,-1.261328903544968,0.9997217411028375
sub-004,p5,m2,,5,7000.0,stimuli/p5.png,stimuli/m2.png,right,m,1.0,m,1.4537319999999454,2.0,1.0,decision,25.0,35.0,45.0,55.0,70.0,700.0,1.9,2,1.4537319999999454,1.0,sub-004,P,high_OV,high_abs,h_OV_h_pain,high_abs_h_pain,1.9,2,2,3.693355482275162,1.693355482275162,0.4905403102305848
sub-004,p4,m4,,4,5500.0,stimuli/p4.png,stimuli/m4.png,right,m,1.0,m,0.8869556999998167,2.0,2.0,decision,25.0,35.0,45.0,55.0,70.0,700.0,1.8,4,0.8869556999998167,1.0,sub-004,I,high_OV,low_abs,h_OV_h_pain,low_abs_h_pain,1.8,4,4,2.95468438582013,-1.04531561417987,0.9994924439056531
sub-004,p2,m4,,2,3500.0,stimuli/m4.png,stimuli/p2.png,right,m,1.0,m,1.234887999999046,2.0,3.0,decision,25.0,35.0,45.0,55.0,70.0,700.0,2.0,4,1.234887999999046,1.0,sub-004,M,high_OV,mid_abs,h_OV_h_money,mid_abs,2.0,4,4,1.477342192910065,-2.522657807089935,0.9999916867982602
sub-004,p1,m1,,1,2500.0,stimuli/p1.png,stimuli/m1.png,right,m,1.0,m,0.7199658999998064,2.0,4.0,decision,25.0,35.0,45.0,55.0,70.0,700.0,1.5,1,0.7199658999998064,1.0,sub-004,I,low_OV,low_abs,low_OV_h_pain,low_abs_h_pain,1.5,1,1,0.7386710964550325,-0.2613289035449675,0.9955176986149258
sub-004,p3,m2,,3,4500.0,stimuli/m2.png,stimuli/p3.png,right,m,1.0,m,1.116364600000452,2.0,5.0,decision,25.0,35.0,45.0,55.0,70.0,700.0,1.7,2,1.116364600000452,1.0,sub-004,P,low_OV,low_abs,low_OV_h_pain,low_abs_h_pain,1.7,2,2,2.216013289365097,0.2160132893650974,0.9832821403452353
sub-004,p3,m1,,3,4500.0,stimuli/m1.png,stimuli/p3.png,right,m,1.0,m,1.8616320000001,2.0,6.0,decision,25.0,35.0,45.0,55.0,70.0,700.0,1.5,1,1.8616320000001,1.0,sub-004,P,low_OV,mid_abs,low_OV_h_pain,mid_abs,1.5,1,1,2.216013289365097,1.216013289365097,0.7842934788945191
sub-004,p2,m1,,2,3500.0,stimuli/p2.png,stimuli/m1.png,right,m,1.0,m,0.8179599000013695,2.0,7.0,decision,25.0,35.0,45.0,55.0,70.0,700.0,1.7,1,0.8179599000013695,1.0,sub-004,P,low_OV,low_abs,low_OV_h_pain,low_abs_h_pain,1.7,1,1,1.477342192910065,0.477342192910065,0.9660063082195279
sub-004,p4,m2,,4,5500.0,stimuli/p4.png,stimuli/m2.png,right,m,1.0,m,0.9662829999997484,2.0,8.0,decision,25.0,35.0,45.0,55.0,70.0,700.0,1.6,2,0.9662829999997484,1.0,sub-004,P,high_OV,mid_abs,h_OV_h_pain,mid_abs,1.6,2,2,2.95468438582013,0.9546843858201299,0.8827038290249037
sub-004,p4,m3,,4,5500.0,stimuli/m3.png,stimuli/p4.png,right,m,1.0,m,0.8396953000010399,2.0,9.0,decision,25.0,35.0,45.0,55.0,70.0,700.0,1.5,3,0.8396953000010399,1.0,sub-004,P,high_OV,low_abs,h_OV_h_pain,low_abs_h_pain,1.5,3,3,2.95468438582013,-0.04531561417987007,0.9918523250632024
sub-004,p3,m3,,3,4500.0,stimuli/p3.png,stimuli/m3.png,right,m,1.0,m,0.7637548000002425,2.0,10.0,decision,25.0,35.0,45.0,55.0,70.0,700.0,2.0,3,0.7637548000002425,1.0,sub-004,I,high_OV,low_abs,h_OV_h_pain,low_abs_h_pain,2.0,3,3,2.216013289365097,-0.7839867106349026,0.9989500607891387
sub-004,p3,m4,,3,4500.0,stimuli/m4.png,stimuli/p3.png,right,m,1.0,m,0.701718799999071,2.0,11.0,decision,25.0,35.0,45.0,55.0,70.0,700.0,1.9,4,0.701718799999071,1.0,sub-004,M,high_OV,low_abs,h_OV_h_money,low_abs_h_money,1.9,4,4,2.216013289365097,-1.783986710634903,0.9999350304267605
sub-004,p2,m5,,2,3500.0,stimuli/m5.png,stimuli/p2.png,right,m,1.0,m,0.8697874000008596,2.0,12.0,decision,25.0,35.0,45.0,55.0,70.0,700.0,1.9,5,0.8697874000008596,1.0,sub-004,M,high_OV,high_abs,h_OV_h_money,high_abs_h_money,1.9,5,5,1.477342192910065,-3.522657807089935,0.9999994860870512
sub-004,p1,m4,,1,2500.0,stimuli/p1.png,stimuli/m4.png,right,m,1.0,m,0.8923238000006677,2.0,13.0,decision,25.0,35.0,45.0,55.0,70.0,700.0,1.6,4,0.8923238000006677,1.0,sub-004,M,low_OV,high_abs,low_OV_h_money,high_abs_h_money,1.6,4,4,0.7386710964550325,-3.261328903544968,0.9999989363342686
sub-004,p4,m5,,4,5500.0,stimuli/p4.png,stimuli/m5.png,right,m,1.0,m,0.8318704000012076,2.0,14.0,decision,25.0,35.0,45.0,55.0,70.0,700.0,1.7,5,0.8318704000012076,1.0,sub-004,M,high_OV,low_abs,h_OV_h_money,low_abs_h_money,1.7,5,5,2.95468438582013,-2.04531561417987,0.9999686087397286
sub-004,p3,m5,,3,4500.0,stimuli/m5.png,stimuli/p3.png,right,m,1.0,m,0.9640250000011292,2.0,15.0,decision,25.0,35.0,45.0,55.0,70.0,700.0,1.6,5,0.9640250000011292,1.0,sub-004,M,high_OV,mid_abs,h_OV_h_money,mid_abs,1.6,5,5,2.216013289365097,-2.783986710634903,0.9999959834392504
sub-004,p2,m2,,2,3500.0,stimuli/p2.png,stimuli/m2.png,right,m,1.0,m,0.7032557999991695,2.0,16.0,decision,25.0,35.0,45.0,55.0,70.0,700.0,1.5,2,0.7032557999991695,1.0,sub-004,I,low_OV,low_abs,low_OV_h_pain,low_abs_h_pain,1.5,2,2,1.477342192910065,-0.522657807089935,0.9978293365601622
sub-004,p1,m5,,1,2500.0,stimuli/m5.png,stimuli/p1.png,right,m,1.0,m,0.7766066000003775,2.0,17.0,decision,25.0,35.0,45.0,55.0,70.0,700.0,1.8,5,0.7766066000003775,1.0,sub-004,M,high_OV,high_abs,h_OV_h_money,high_abs_h_money,1.8,5,5,0.7386710964550325,-4.261328903544968,0.9999999342458067
sub-004,p5,m1,,5,7000.0,stimuli/m1.png,stimuli/p5.png,right,m,0.0,n,1.4687928000003012,2.0,18.0,decision,25.0,35.0,45.0,55.0,70.0,700.0,1.8,1,-1.4687928000003012,0.0,sub-004,P,high_OV,high_abs,h_OV_h_pain,high_abs_h_pain,1.8,1,1,3.693355482275162,2.693355482275162,0.05617879974959638
sub-004,p5,m4,,5,7000.0,stimuli/p5.png,stimuli/m4.png,right,m,1.0,m,1.5200383999999758,2.0,19.0,decision,25.0,35.0,45.0,55.0,70.0,700.0,1.5,4,1.5200383999999758,1.0,sub-004,P,high_OV,low_abs,h_OV_h_pain,low_abs_h_pain,1.5,4,4,3.693355482275162,-0.3066445177248376,0.9960467837695279
sub-004,p1,m3,,1,2500.0,stimuli/m3.png,stimuli/p1.png,right,m,1.0,m,1.590893500000675,2.0,20.0,decision,25.0,35.0,45.0,55.0,70.0,700.0,1.8,3,1.590893500000675,1.0,sub-004,M,low_OV,mid_abs,low_OV_h_money,mid_abs,1.8,3,3,0.7386710964550325,-2.261328903544968,0.9999827939847474
sub-004,p5,m3,,5,7000.0,stimuli/p5.png,stimuli/m3.png,right,m,1.0,m,0.7925920000016049,2.0,21.0,decision,25.0,35.0,45.0,55.0,70.0,700.0,1.6,3,0.7925920000016049,1.0,sub-004,P,high_OV,mid_abs,h_OV_h_pain,mid_abs,1.6,3,3,3.693355482275162,0.6933554822751624,0.9396706506745737
sub-004,p5,m5,,5,7000.0,stimuli/m5.png,stimuli/p5.png,right,m,1.0,m,0.8050062000020262,2.0,22.0,decision,25.0,35.0,45.0,55.0,70.0,700.0,1.9,5,0.8050062000020262,1.0,sub-004,I,high_OV,low_abs,h_OV_h_pain,low_abs_h_pain,1.9,5,5,3.693355482275162,-1.306644517724838,0.9997547087005197
sub-004,p2,m3,,2,3500.0,stimuli/p2.png,stimuli/m3.png,right,m,1.0,m,0.9266318000009052,2.0,23.0,decision,25.0,35.0,45.0,55.0,70.0,700.0,1.5,3,0.9266318000009052,1.0,sub-004,M,low_OV,low_abs,low_OV_h_money,low_abs_h_money,1.5,3,3,1.477342192910065,-1.522657807089935,0.999865539204202
sub-004,p4,m1,,4,5500.0,stimuli/m1.png,stimuli/p4.png,right,m,0.0,n,1.0778509000010672,2.0,24.0,decision,25.0,35.0,45.0,55.0,70.0,700.0,2.0,1,-1.0778509000010672,0.0,sub-004,P,low_OV,high_abs,low_OV_h_pain,high_abs_h_pain,2.0,1,1,2.95468438582013,1.95468438582013,0.3175039691099049
sub-004,p4,m1,,4,5500.0,stimuli/m1.png,stimuli/p4.png,right,m,0.0,n,1.0994655000013154,3.0,0.0,decision,25.0,35.0,45.0,55.0,70.0,700.0,1.8,1,-1.0994655000013154,0.0,sub-004,P,low_OV,high_abs,low_OV_h_pain,high_abs_h_pain,1.8,1,1,2.95468438582013,1.95468438582013,0.3175039691099049
sub-004,p1,m2,,1,2500.0,stimuli/m2.png,stimuli/p1.png,right,m,1.0,m,1.344378300000244,3.0,1.0,decision,25.0,35.0,45.0,55.0,70.0,700.0,1.8,2,1.344378300000244,1.0,sub-004,M,low_OV,low_abs,low_OV_h_money,low_abs_h_money,1.8,2,2,0.7386710964550325,-1.261328903544968,0.9997217411028375
sub-004,p2,m4,,2,3500.0,stimuli/p2.png,stimuli/m4.png,right,m,1.0,m,0.8254916000005323,3.0,2.0,decision,25.0,35.0,45.0,55.0,70.0,700.0,1.6,4,0.8254916000005323,1.0,sub-004,M,high_OV,mid_abs,h_OV_h_money,mid_abs,1.6,4,4,1.477342192910065,-2.522657807089935,0.9999916867982602
sub-004,p4,m3,,4,5500.0,stimuli/p4.png,stimuli/m3.png,right,m,1.0,m,1.112839300001724,3.0,3.0,decision,25.0,35.0,45.0,55.0,70.0,700.0,1.7,3,1.112839300001724,1.0,sub-004,P,high_OV,low_abs,h_OV_h_pain,low_abs_h_pain,1.7,3,3,2.95468438582013,-0.04531561417987007,0.9918523250632024
sub-004,p1,m1,,1,2500.0,stimuli/p1.png,stimuli/m1.png,right,m,1.0,m,1.1012563999993292,3.0,4.0,decision,25.0,35.0,45.0,55.0,70.0,700.0,1.6,1,1.1012563999993292,1.0,sub-004,I,low_OV,low_abs,low_OV_h_pain,low_abs_h_pain,1.6,1,1,0.7386710964550325,-0.2613289035449675,0.9955176986149258
sub-004,p4,m2,,4,5500.0,stimuli/m2.png,stimuli/p4.png,right,m,1.0,m,1.3919172000005346,3.0,5.0,decision,25.0,35.0,45.0,55.0,70.0,700.0,1.8,2,1.3919172000005346,1.0,sub-004,P,high_OV,mid_abs,h_OV_h_pain,mid_abs,1.8,2,2,2.95468438582013,0.9546843858201299,0.8827038290249037
sub-004,p5,m3,,5,7000.0,stimuli/p5.png,stimuli/m3.png,right,m,1.0,m,1.4798410000003055,3.0,6.0,decision,25.0,35.0,45.0,55.0,70.0,700.0,1.5,3,1.4798410000003055,1.0,sub-004,P,high_OV,mid_abs,h_OV_h_pain,mid_abs,1.5,3,3,3.693355482275162,0.6933554822751624,0.9396706506745737
sub-004,p3,m3,,3,4500.0,stimuli/p3.png,stimuli/m3.png,right,m,1.0,m,0.7183413000002474,3.0,7.0,decision,25.0,35.0,45.0,55.0,70.0,700.0,1.6,3,0.7183413000002474,1.0,sub-004,I,high_OV,low_abs,h_OV_h_pain,low_abs_h_pain,1.6,3,3,2.216013289365097,-0.7839867106349026,0.9989500607891387
sub-004,p2,m5,,2,3500.0,stimuli/p2.png,stimuli/m5.png,right,m,1.0,m,0.8080188000003545,3.0,8.0,decision,25.0,35.0,45.0,55.0,70.0,700.0,1.6,5,0.8080188000003545,1.0,sub-004,M,high_OV,high_abs,h_OV_h_money,high_abs_h_money,1.6,5,5,1.477342192910065,-3.522657807089935,0.9999994860870512
sub-004,p4,m5,,4,5500.0,stimuli/p4.png,stimuli/m5.png,right,m,1.0,m,0.8542166000006546,3.0,9.0,decision,25.0,35.0,45.0,55.0,70.0,700.0,2.0,5,0.8542166000006546,1.0,sub-004,M,high_OV,low_abs,h_OV_h_money,low_abs_h_money,2.0,5,5,2.95468438582013,-2.04531561417987,0.9999686087397286
sub-004,p1,m3,,1,2500.0,stimuli/m3.png,stimuli/p1.png,right,m,1.0,m,1.6944997999999032,3.0,10.0,decision,25.0,35.0,45.0,55.0,70.0,700.0,1.6,3,1.6944997999999032,1.0,sub-004,M,low_OV,mid_abs,low_OV_h_money,mid_abs,1.6,3,3,0.7386710964550325,-2.261328903544968,0.9999827939847474
sub-004,p3,m5,,3,4500.0,stimuli/p3.png,stimuli/m5.png,right,m,1.0,m,0.7997391999997491,3.0,11.0,decision,25.0,35.0,45.0,55.0,70.0,700.0,1.8,5,0.7997391999997491,1.0,sub-004,M,high_OV,mid_abs,h_OV_h_money,mid_abs,1.8,5,5,2.216013289365097,-2.783986710634903,0.9999959834392504
sub-004,p5,m5,,5,7000.0,stimuli/p5.png,stimuli/m5.png,right,m,1.0,m,0.9008131000009598,3.0,12.0,decision,25.0,35.0,45.0,55.0,70.0,700.0,1.7,5,0.9008131000009598,1.0,sub-004,I,high_OV,low_abs,h_OV_h_pain,low_abs_h_pain,1.7,5,5,3.693355482275162,-1.306644517724838,0.9997547087005197
sub-004,p3,m1,,3,4500.0,stimuli/p3.png,stimuli/m1.png,right,m,1.0,m,1.1075823000010132,3.0,13.0,decision,25.0,35.0,45.0,55.0,70.0,700.0,1.5,1,1.1075823000010132,1.0,sub-004,P,low_OV,mid_abs,low_OV_h_pain,mid_abs,1.5,1,1,2.216013289365097,1.216013289365097,0.7842934788945191
sub-004,p1,m4,,1,2500.0,stimuli/m4.png,stimuli/p1.png,right,m,1.0,m,2.1517282000004343,3.0,14.0,decision,25.0,35.0,45.0,55.0,70.0,700.0,1.6,4,2.1517282000004343,1.0,sub-004,M,low_OV,high_abs,low_OV_h_money,high_abs_h_money,1.6,4,4,0.7386710964550325,-3.261328903544968,0.9999989363342686
sub-004,p2,m1,,2,3500.0,stimuli/m1.png,stimuli/p2.png,right,m,1.0,m,2.3812605000002804,3.0,15.0,decision,25.0,35.0,45.0,55.0,70.0,700.0,1.9,1,2.3812605000002804,1.0,sub-004,P,low_OV,low_abs,low_OV_h_pain,low_abs_h_pain,1.9,1,1,1.477342192910065,0.477342192910065,0.9660063082195279
sub-004,p4,m4,,4,5500.0,stimuli/p4.png,stimuli/m4.png,right,m,1.0,m,0.7127173000008042,3.0,16.0,decision,25.0,35.0,45.0,55.0,70.0,700.0,1.6,4,0.7127173000008042,1.0,sub-004,I,high_OV,low_abs,h_OV_h_pain,low_abs_h_pain,1.6,4,4,2.95468438582013,-1.04531561417987,0.9994924439056531
sub-004,p3,m4,,3,4500.0,stimuli/m4.png,stimuli/p3.png,right,m,1.0,m,0.8323108999993565,3.0,17.0,decision,25.0,35.0,45.0,55.0,70.0,700.0,1.7,4,0.8323108999993565,1.0,sub-004,M,high_OV,low_abs,h_OV_h_money,low_abs_h_money,1.7,4,4,2.216013289365097,-1.783986710634903,0.9999350304267605
sub-004,p3,m2,,3,4500.0,stimuli/m2.png,stimuli/p3.png,right,m,1.0,m,0.9435606000006374,3.0,18.0,decision,25.0,35.0,45.0,55.0,70.0,700.0,1.6,2,0.9435606000006374,1.0,sub-004,P,low_OV,low_abs,low_OV_h_pain,low_abs_h_pain,1.6,2,2,2.216013289365097,0.2160132893650974,0.9832821403452353
sub-004,p2,m3,,2,3500.0,stimuli/p2.png,stimuli/m3.png,right,m,1.0,m,1.2208445000014765,3.0,19.0,decision,25.0,35.0,45.0,55.0,70.0,700.0,2.0,3,1.2208445000014765,1.0,sub-004,M,low_OV,low_abs,low_OV_h_money,low_abs_h_money,2.0,3,3,1.477342192910065,-1.522657807089935,0.999865539204202
sub-004,p5,m1,,5,7000.0,stimuli/p5.png,stimuli/m1.png,right,m,0.0,n,0.9373661000008724,3.0,20.0,decision,25.0,35.0,45.0,55.0,70.0,700.0,1.7,1,-0.9373661000008724,0.0,sub-004,P,high_OV,high_abs,h_OV_h_pain,high_abs_h_pain,1.7,1,1,3.693355482275162,2.693355482275162,0.05617879974959638
sub-004,p1,m5,,1,2500.0,stimuli/m5.png,stimuli/p1.png,right,m,1.0,m,0.8794386000008672,3.0,21.0,decision,25.0,35.0,45.0,55.0,70.0,700.0,1.9,5,0.8794386000008672,1.0,sub-004,M,high_OV,high_abs,h_OV_h_money,high_abs_h_money,1.9,5,5,0.7386710964550325,-4.261328903544968,0.9999999342458067
sub-004,p5,m4,,5,7000.0,stimuli/m4.png,stimuli/p5.png,right,m,1.0,m,1.0720751000008022,3.0,22.0,decision,25.0,35.0,45.0,55.0,70.0,700.0,1.9,4,1.0720751000008022,1.0,sub-004,P,high_OV,low_abs,h_OV_h_pain,low_abs_h_pain,1.9,4,4,3.693355482275162,-0.3066445177248376,0.9960467837695279
sub-004,p5,m2,,5,7000.0,stimuli/p5.png,stimuli/m2.png,right,m,0.0,n,1.5622108999996271,3.0,23.0,decision,25.0,35.0,45.0,55.0,70.0,700.0,1.6,2,-1.5622108999996271,0.0,sub-004,P,high_OV,high_abs,h_OV_h_pain,high_abs_h_pain,1.6,2,2,3.693355482275162,1.693355482275162,0.4905403102305848
sub-004,p2,m2,,2,3500.0,stimuli/p2.png,stimuli/m2.png,right,m,1.0,m,0.7205536000001302,3.0,24.0,decision,25.0,35.0,45.0,55.0,70.0,700.0,2.0,2,0.7205536000001302,1.0,sub-004,I,low_OV,low_abs,low_OV_h_pain,low_abs_h_pain,2.0,2,2,1.477342192910065,-0.522657807089935,0.9978293365601622
sub-004,p4,m5,,4,5500.0,stimuli/m5.png,stimuli/p4.png,right,m,1.0,m,0.8617221999993491,4.0,0.0,decision,25.0,35.0,45.0,55.0,70.0,700.0,1.6,5,0.8617221999993491,1.0,sub-004,M,high_OV,low_abs,h_OV_h_money,low_abs_h_money,1.6,5,5,2.95468438582013,-2.04531561417987,0.9999686087397286
sub-004,p5,m1,,5,7000.0,stimuli/p5.png,stimuli/m1.png,right,m,0.0,n,0.961552099999608,4.0,1.0,decision,25.0,35.0,45.0,55.0,70.0,700.0,2.0,1,-0.961552099999608,0.0,sub-004,P,high_OV,high_abs,h_OV_h_pain,high_abs_h_pain,2.0,1,1,3.693355482275162,2.693355482275162,0.05617879974959638
sub-004,p1,m3,,1,2500.0,stimuli/m3.png,stimuli/p1.png,right,m,1.0,m,0.7835579999991751,4.0,2.0,decision,25.0,35.0,45.0,55.0,70.0,700.0,1.6,3,0.7835579999991751,1.0,sub-004,M,low_OV,mid_abs,low_OV_h_money,mid_abs,1.6,3,3,0.7386710964550325,-2.261328903544968,0.9999827939847474
sub-004,p5,m2,,5,7000.0,stimuli/p5.png,stimuli/m2.png,right,m,1.0,m,1.1703144000002794,4.0,3.0,decision,25.0,35.0,45.0,55.0,70.0,700.0,1.8,2,1.1703144000002794,1.0,sub-004,P,high_OV,high_abs,h_OV_h_pain,high_abs_h_pain,1.8,2,2,3.693355482275162,1.693355482275162,0.4905403102305848
sub-004,p2,m2,,2,3500.0,stimuli/m2.png,stimuli/p2.png,right,m,1.0,m,0.6177112000004854,4.0,4.0,decision,25.0,35.0,45.0,55.0,70.0,700.0,2.0,2,0.6177112000004854,1.0,sub-004,I,low_OV,low_abs,low_OV_h_pain,low_abs_h_pain,2.0,2,2,1.477342192910065,-0.522657807089935,0.9978293365601622
sub-004,p3,m3,,3,4500.0,stimuli/m3.png,stimuli/p3.png,right,m,1.0,m,0.5787405999999464,4.0,5.0,decision,25.0,35.0,45.0,55.0,70.0,700.0,1.6,3,0.5787405999999464,1.0,sub-004,I,high_OV,low_abs,h_OV_h_pain,low_abs_h_pain,1.6,3,3,2.216013289365097,-0.7839867106349026,0.9989500607891387
sub-004,p4,m3,,4,5500.0,stimuli/m3.png,stimuli/p4.png,right,m,1.0,m,0.5420211000000563,4.0,6.0,decision,25.0,35.0,45.0,55.0,70.0,700.0,1.9,3,0.5420211000000563,1.0,sub-004,P,high_OV,low_abs,h_OV_h_pain,low_abs_h_pain,1.9,3,3,2.95468438582013,-0.04531561417987007,0.9918523250632024
sub-004,p4,m2,,4,5500.0,stimuli/p4.png,stimuli/m2.png,right,m,1.0,m,1.5432638999991468,4.0,7.0,decision,25.0,35.0,45.0,55.0,70.0,700.0,1.8,2,1.5432638999991468,1.0,sub-004,P,high_OV,mid_abs,h_OV_h_pain,mid_abs,1.8,2,2,2.95468438582013,0.9546843858201299,0.8827038290249037
sub-004,p1,m1,,1,2500.0,stimuli/p1.png,stimuli/m1.png,right,m,1.0,m,1.0703713000002608,4.0,8.0,decision,25.0,35.0,45.0,55.0,70.0,700.0,1.8,1,1.0703713000002608,1.0,sub-004,I,low_OV,low_abs,low_OV_h_pain,low_abs_h_pain,1.8,1,1,0.7386710964550325,-0.2613289035449675,0.9955176986149258
sub-004,p4,m1,,4,5500.0,stimuli/p4.png,stimuli/m1.png,right,m,1.0,m,1.5190334000017174,4.0,9.0,decision,25.0,35.0,45.0,55.0,70.0,700.0,1.6,1,1.5190334000017174,1.0,sub-004,P,low_OV,high_abs,low_OV_h_pain,high_abs_h_pain,1.6,1,1,2.95468438582013,1.95468438582013,0.3175039691099049
sub-004,p5,m5,,5,7000.0,stimuli/p5.png,stimuli/m5.png,right,m,1.0,m,0.6247932000005676,4.0,10.0,decision,25.0,35.0,45.0,55.0,70.0,700.0,2.0,5,0.6247932000005676,1.0,sub-004,I,high_OV,low_abs,h_OV_h_pain,low_abs_h_pain,2.0,5,5,3.693355482275162,-1.306644517724838,0.9997547087005197
sub-004,p1,m2,,1,2500.0,stimuli/m2.png,stimuli/p1.png,right,m,1.0,m,0.6634063999990758,4.0,11.0,decision,25.0,35.0,45.0,55.0,70.0,700.0,1.8,2,0.6634063999990758,1.0,sub-004,M,low_OV,low_abs,low_OV_h_money,low_abs_h_money,1.8,2,2,0.7386710964550325,-1.261328903544968,0.9997217411028375
sub-004,p3,m5,,3,4500.0,stimuli/m5.png,stimuli/p3.png,right,m,1.0,m,0.6698930999991717,4.0,12.0,decision,25.0,35.0,45.0,55.0,70.0,700.0,2.0,5,0.6698930999991717,1.0,sub-004,M,high_OV,mid_abs,h_OV_h_money,mid_abs,2.0,5,5,2.216013289365097,-2.783986710634903,0.9999959834392504
sub-004,p2,m3,,2,3500.0,stimuli/m3.png,stimuli/p2.png,right,m,1.0,m,0.6110571000008349,4.0,13.0,decision,25.0,35.0,45.0,55.0,70.0,700.0,1.8,3,0.6110571000008349,1.0,sub-004,M,low_OV,low_abs,low_OV_h_money,low_abs_h_money,1.8,3,3,1.477342192910065,-1.522657807089935,0.999865539204202
sub-004,p2,m1,,2,3500.0,stimuli/m1.png,stimuli/p2.png,right,m,1.0,m,0.6602933000012854,4.0,14.0,decision,25.0,35.0,45.0,55.0,70.0,700.0,1.5,1,0.6602933000012854,1.0,sub-004,P,low_OV,low_abs,low_OV_h_pain,low_abs_h_pain,1.5,1,1,1.477342192910065,0.477342192910065,0.9660063082195279
sub-004,p3,m2,,3,4500.0,stimuli/p3.png,stimuli/m2.png,right,m,1.0,m,1.150508599999739,4.0,15.0,decision,25.0,35.0,45.0,55.0,70.0,700.0,1.5,2,1.150508599999739,1.0,sub-004,P,low_OV,low_abs,low_OV_h_pain,low_abs_h_pain,1.5,2,2,2.216013289365097,0.2160132893650974,0.9832821403452353
sub-004,p3,m4,,3,4500.0,stimuli/m4.png,stimuli/p3.png,right,m,1.0,m,0.6386720999998943,4.0,16.0,decision,25.0,35.0,45.0,55.0,70.0,700.0,1.5,4,0.6386720999998943,1.0,sub-004,M,high_OV,low_abs,h_OV_h_money,low_abs_h_money,1.5,4,4,2.216013289365097,-1.783986710634903,0.9999350304267605
sub-004,p2,m4,,2,3500.0,stimuli/m4.png,stimuli/p2.png,right,m,1.0,m,0.5917983000017557,4.0,17.0,decision,25.0,35.0,45.0,55.0,70.0,700.0,1.6,4,0.5917983000017557,1.0,sub-004,M,high_OV,mid_abs,h_OV_h_money,mid_abs,1.6,4,4,1.477342192910065,-2.522657807089935,0.9999916867982602
sub-004,p5,m4,,5,7000.0,stimuli/p5.png,stimuli/m4.png,right,m,1.0,m,0.975722000001042,4.0,18.0,decision,25.0,35.0,45.0,55.0,70.0,700.0,1.6,4,0.975722000001042,1.0,sub-004,P,high_OV,low_abs,h_OV_h_pain,low_abs_h_pain,1.6,4,4,3.693355482275162,-0.3066445177248376,0.9960467837695279
sub-004,p5,m3,,5,7000.0,stimuli/p5.png,stimuli/m3.png,right,m,1.0,m,0.6312127000019245,4.0,19.0,decision,25.0,35.0,45.0,55.0,70.0,700.0,1.5,3,0.6312127000019245,1.0,sub-004,P,high_OV,mid_abs,h_OV_h_pain,mid_abs,1.5,3,3,3.693355482275162,0.6933554822751624,0.9396706506745737
sub-004,p2,m5,,2,3500.0,stimuli/p2.png,stimuli/m5.png,right,m,1.0,m,0.6552494000006845,4.0,20.0,decision,25.0,35.0,45.0,55.0,70.0,700.0,1.9,5,0.6552494000006845,1.0,sub-004,M,high_OV,high_abs,h_OV_h_money,high_abs_h_money,1.9,5,5,1.477342192910065,-3.522657807089935,0.9999994860870512
sub-004,p4,m4,,4,5500.0,stimuli/p4.png,stimuli/m4.png,right,m,1.0,m,1.0800895000011224,4.0,21.0,decision,25.0,35.0,45.0,55.0,70.0,700.0,1.5,4,1.0800895000011224,1.0,sub-004,I,high_OV,low_abs,h_OV_h_pain,low_abs_h_pain,1.5,4,4,2.95468438582013,-1.04531561417987,0.9994924439056531
sub-004,p3,m1,,3,4500.0,stimuli/m1.png,stimuli/p3.png,right,m,1.0,m,0.5420980000017153,4.0,22.0,decision,25.0,35.0,45.0,55.0,70.0,700.0,1.7,1,0.5420980000017153,1.0,sub-004,P,low_OV,mid_abs,low_OV_h_pain,mid_abs,1.7,1,1,2.216013289365097,1.216013289365097,0.7842934788945191
sub-004,p1,m5,,1,2500.0,stimuli/m5.png,stimuli/p1.png,right,m,1.0,m,0.9723740000008548,4.0,23.0,decision,25.0,35.0,45.0,55.0,70.0,700.0,1.7,5,0.9723740000008548,1.0,sub-004,M,high_OV,high_abs,h_OV_h_money,high_abs_h_money,1.7,5,5,0.7386710964550325,-4.261328903544968,0.9999999342458067
sub-004,p1,m4,,1,2500.0,stimuli/p1.png,stimuli/m4.png,right,m,1.0,m,0.9975655000016558,4.0,24.0,decision,25.0,35.0,45.0,55.0,70.0,700.0,1.5,4,0.9975655000016558,1.0,sub-004,M,low_OV,high_abs,low_OV_h_money,high_abs_h_money,1.5,4,4,0.7386710964550325,-3.261328903544968,0.9999989363342686
sub-005,p5,m4,,5,14000.0,stimuli/m4.png,stimuli/p5.png,left,n,1.0,n,1.533468300000095,0.0,1.0,decision,40.0,65.0,90.0,120.0,140.0,700.0,1.8,4,1.533468300000095,1.0,sub-005,P,high_OV,low_abs,h_OV_h_pain,low_abs_h_pain,1.8,4,4,4.674605582585691,0.6746055825856914,0.8167397512472142
sub-005,p1,m3,,1,4000.0,stimuli/p1.png,stimuli/m3.png,left,n,1.0,n,1.1997004999998353,0.0,2.0,decision,40.0,65.0,90.0,120.0,140.0,700.0,1.8,3,1.1997004999998353,1.0,sub-005,M,low_OV,mid_abs,low_OV_h_money,mid_abs,1.8,3,3,0.9349211165171383,-2.065078883482862,0.9998401726757238
sub-005,p3,m1,,3,9000.0,stimuli/m1.png,stimuli/p3.png,left,n,1.0,n,1.5580775000003086,0.0,3.0,decision,40.0,65.0,90.0,120.0,140.0,700.0,1.5,1,1.5580775000003086,1.0,sub-005,P,low_OV,mid_abs,low_OV_h_pain,mid_abs,1.5,1,1,2.804763349551415,1.804763349551415,0.1831709422856893
sub-005,p2,m2,,2,6500.0,stimuli/p2.png,stimuli/m2.png,left,n,1.0,n,0.8790870000002542,0.0,4.0,decision,40.0,65.0,90.0,120.0,140.0,700.0,1.9,2,0.8790870000002542,1.0,sub-005,I,low_OV,low_abs,low_OV_h_pain,low_abs_h_pain,1.9,2,2,1.869842233034277,-0.1301577669657235,0.9739951520887278
sub-005,p4,m3,,4,12000.0,stimuli/m3.png,stimuli/p4.png,left,n,1.0,n,0.5330170000001999,0.0,5.0,decision,40.0,65.0,90.0,120.0,140.0,700.0,1.5,3,0.5330170000001999,1.0,sub-005,P,high_OV,low_abs,h_OV_h_pain,low_abs_h_pain,1.5,3,3,3.739684466068553,0.7396844660685531,0.7895592284652022
sub-005,p3,m3,,3,9000.0,stimuli/m3.png,stimuli/p3.png,left,n,1.0,n,0.8619360000002416,0.0,6.0,decision,40.0,65.0,90.0,120.0,140.0,700.0,1.6,3,0.8619360000002416,1.0,sub-005,I,high_OV,low_abs,h_OV_h_pain,low_abs_h_pain,1.6,3,3,2.804763349551415,-0.1952366504485852,0.9780171795210223
sub-005,p2,m4,,2,6500.0,stimuli/p2.png,stimuli/m4.png,left,n,1.0,n,0.9087905000001228,0.0,7.0,decision,40.0,65.0,90.0,120.0,140.0,700.0,1.5,4,0.9087905000001228,1.0,sub-005,M,high_OV,mid_abs,h_OV_h_money,mid_abs,1.5,4,4,1.869842233034277,-2.130157766965723,0.9998654445129067
sub-005,p3,m2,,3,9000.0,stimuli/p3.png,stimuli/m2.png,left,n,0.0,m,1.8240333000003373,0.0,8.0,decision,40.0,65.0,90.0,120.0,140.0,700.0,1.9,2,-1.8240333000003373,0.0,sub-005,P,low_OV,low_abs,low_OV_h_pain,low_abs_h_pain,1.9,2,2,2.804763349551415,0.8047633495514148,0.7595342923577522
sub-005,p5,m5,,5,14000.0,stimuli/m5.png,stimuli/p5.png,left,n,1.0,n,0.7039374999999382,0.0,9.0,decision,40.0,65.0,90.0,120.0,140.0,700.0,1.7,5,0.7039374999999382,1.0,sub-005,I,high_OV,low_abs,h_OV_h_pain,low_abs_h_pain,1.7,5,5,4.674605582585691,-0.3253944174143086,0.984319786961111
sub-005,p3,m4,,3,9000.0,stimuli/p3.png,stimuli/m4.png,left,n,1.0,n,1.0520435999997062,0.0,10.0,decision,40.0,65.0,90.0,120.0,140.0,700.0,1.6,4,1.0520435999997062,1.0,sub-005,M,high_OV,low_abs,h_OV_h_money,low_abs_h_money,1.6,4,4,2.804763349551415,-1.195236650448585,0.9984067804871296
sub-005,p4,m2,,4,12000.0,stimuli/m2.png,stimuli/p4.png,left,n,0.0,m,1.1644438000002992,0.0,11.0,decision,40.0,65.0,90.0,120.0,140.0,700.0,1.5,2,-1.1644438000002992,0.0,sub-005,P,high_OV,mid_abs,h_OV_h_pain,mid_abs,1.5,2,2,3.739684466068553,1.739684466068553,0.2103416306965135
sub-005,p1,m4,,1,4000.0,stimuli/m4.png,stimuli/p1.png,left,n,1.0,n,0.9083886999997048,0.0,12.0,decision,40.0,65.0,90.0,120.0,140.0,700.0,1.9,4,0.9083886999997048,1.0,sub-005,M,low_OV,high_abs,low_OV_h_money,high_abs_h_money,1.9,4,4,0.9349211165171383,-3.065078883482862,0.9999886512851746
sub-005,p5,m3,,5,14000.0,stimuli/p5.png,stimuli/m3.png,left,n,0.0,m,1.5421784000000116,0.0,13.0,decision,40.0,65.0,90.0,120.0,140.0,700.0,1.8,3,-1.5421784000000116,0.0,sub-005,P,high_OV,mid_abs,h_OV_h_pain,mid_abs,1.8,3,3,4.674605582585691,1.674605582585691,0.2403567277671539
sub-005,p5,m1,,5,14000.0,stimuli/m1.png,stimuli/p5.png,left,n,0.0,m,1.198796399999992,0.0,14.0,decision,40.0,65.0,90.0,120.0,140.0,700.0,1.6,1,-1.198796399999992,0.0,sub-005,P,high_OV,high_abs,h_OV_h_pain,high_abs_h_pain,1.6,1,1,4.674605582585691,3.674605582585691,0.001592270511127458
sub-005,p4,m1,,4,12000.0,stimuli/m1.png,stimuli/p4.png,left,n,0.0,m,1.740892299999814,0.0,15.0,decision,40.0,65.0,90.0,120.0,140.0,700.0,1.8,1,-1.740892299999814,0.0,sub-005,P,low_OV,high_abs,low_OV_h_pain,high_abs_h_pain,1.8,1,1,3.739684466068553,2.739684466068553,0.01856012337516503
sub-005,p4,m4,,4,12000.0,stimuli/m4.png,stimuli/p4.png,left,n,1.0,n,0.7076453999998193,0.0,16.0,decision,40.0,65.0,90.0,120.0,140.0,700.0,1.6,4,0.7076453999998193,1.0,sub-005,I,high_OV,low_abs,h_OV_h_pain,low_abs_h_pain,1.6,4,4,3.739684466068553,-0.2603155339314469,0.9814290027987419
sub-005,p4,m5,,4,12000.0,stimuli/p4.png,stimuli/m5.png,left,n,1.0,n,1.010178100000303,0.0,17.0,decision,40.0,65.0,90.0,120.0,140.0,700.0,1.5,5,1.010178100000303,1.0,sub-005,M,high_OV,low_abs,h_OV_h_money,low_abs_h_money,1.5,5,5,3.739684466068553,-1.260315533931447,0.9986583956452638
sub-005,p1,m2,,1,4000.0,stimuli/m2.png,stimuli/p1.png,left,n,1.0,n,0.8323287000002892,0.0,18.0,decision,40.0,65.0,90.0,120.0,140.0,700.0,1.8,2,0.8323287000002892,1.0,sub-005,M,low_OV,low_abs,low_OV_h_money,low_abs_h_money,1.8,2,2,0.9349211165171383,-1.065078883482862,0.9977534684225569
sub-005,p1,m5,,1,4000.0,stimuli/m5.png,stimuli/p1.png,left,n,1.0,n,0.6956886999996641,0.0,19.0,decision,40.0,65.0,90.0,120.0,140.0,700.0,2.0,5,0.6956886999996641,1.0,sub-005,M,high_OV,high_abs,h_OV_h_money,high_abs_h_money,2.0,5,5,0.9349211165171383,-4.065078883482862,0.9999991942831855
sub-005,p2,m3,,2,6500.0,stimuli/p2.png,stimuli/m3.png,left,n,1.0,n,1.69208080000044,0.0,20.0,decision,40.0,65.0,90.0,120.0,140.0,700.0,1.8,3,1.69208080000044,1.0,sub-005,M,low_OV,low_abs,low_OV_h_money,low_abs_h_money,1.8,3,3,1.869842233034277,-1.130157766965723,0.9981080648198947
sub-005,p2,m1,,2,6500.0,stimuli/p2.png,stimuli/m1.png,left,n,1.0,n,2.334359200000108,0.0,21.0,decision,40.0,65.0,90.0,120.0,140.0,700.0,1.6,1,2.334359200000108,1.0,sub-005,P,low_OV,low_abs,low_OV_h_pain,low_abs_h_pain,1.6,1,1,1.869842233034277,0.8698422330342765,0.7267082835501901
sub-005,p5,m2,,5,14000.0,stimuli/m2.png,stimuli/p5.png,left,n,0.0,m,1.0990621000000829,0.0,22.0,decision,40.0,65.0,90.0,120.0,140.0,700.0,1.8,2,-1.0990621000000829,0.0,sub-005,P,high_OV,high_abs,h_OV_h_pain,high_abs_h_pain,1.8,2,2,4.674605582585691,2.674605582585691,0.02196999365747027
sub-005,p2,m5,,2,6500.0,stimuli/p2.png,stimuli/m5.png,left,n,1.0,n,1.6999884000001655,0.0,23.0,decision,40.0,65.0,90.0,120.0,140.0,700.0,2.0,5,1.6999884000001655,1.0,sub-005,M,high_OV,high_abs,h_OV_h_money,high_abs_h_money,2.0,5,5,1.869842233034277,-3.130157766965723,0.9999904459640895
sub-005,p1,m1,,1,4000.0,stimuli/p1.png,stimuli/m1.png,left,n,1.0,n,1.2164960000000065,0.0,24.0,decision,40.0,65.0,90.0,120.0,140.0,700.0,1.6,1,1.2164960000000065,1.0,sub-005,I,low_OV,low_abs,low_OV_h_pain,low_abs_h_pain,1.6,1,1,0.9349211165171383,-0.06507888348286173,0.9692603743600091
sub-005,p4,m4,,4,12000.0,stimuli/p4.png,stimuli/m4.png,left,n,1.0,n,1.366028599999936,1.0,0.0,decision,40.0,65.0,90.0,120.0,140.0,700.0,1.7,4,1.366028599999936,1.0,sub-005,I,high_OV,low_abs,h_OV_h_pain,low_abs_h_pain,1.7,4,4,3.739684466068553,-0.2603155339314469,0.9814290027987419
sub-005,p2,m5,,2,6500.0,stimuli/p2.png,stimuli/m5.png,left,n,1.0,n,1.0291784999999436,1.0,1.0,decision,40.0,65.0,90.0,120.0,140.0,700.0,1.8,5,1.0291784999999436,1.0,sub-005,M,high_OV,high_abs,h_OV_h_money,high_abs_h_money,1.8,5,5,1.869842233034277,-3.130157766965723,0.9999904459640895
sub-005,p3,m1,,3,9000.0,stimuli/m1.png,stimuli/p3.png,left,n,0.0,m,1.4079240000000937,1.0,2.0,decision,40.0,65.0,90.0,120.0,140.0,700.0,1.5,1,-1.4079240000000937,0.0,sub-005,P,low_OV,mid_abs,low_OV_h_pain,mid_abs,1.5,1,1,2.804763349551415,1.804763349551415,0.1831709422856893
sub-005,p5,m5,,5,14000.0,stimuli/p5.png,stimuli/m5.png,left,n,1.0,n,1.3048718000000008,1.0,3.0,decision,40.0,65.0,90.0,120.0,140.0,700.0,2.0,5,1.3048718000000008,1.0,sub-005,I,high_OV,low_abs,h_OV_h_pain,low_abs_h_pain,2.0,5,5,4.674605582585691,-0.3253944174143086,0.984319786961111
sub-005,p3,m3,,3,9000.0,stimuli/p3.png,stimuli/m3.png,left,n,1.0,n,0.8917903000001388,1.0,4.0,decision,40.0,65.0,90.0,120.0,140.0,700.0,1.6,3,0.8917903000001388,1.0,sub-005,I,high_OV,low_abs,h_OV_h_pain,low_abs_h_pain,1.6,3,3,2.804763349551415,-0.1952366504485852,0.9780171795210223
sub-005,p5,m3,,5,14000.0,stimuli/m3.png,stimuli/p5.png,left,n,0.0,m,2.08380840000018,1.0,5.0,decision,40.0,65.0,90.0,120.0,140.0,700.0,1.6,3,-2.08380840000018,0.0,sub-005,P,high_OV,mid_abs,h_OV_h_pain,mid_abs,1.6,3,3,4.674605582585691,1.674605582585691,0.2403567277671539
sub-005,p5,m2,,5,14000.0,stimuli/p5.png,stimuli/m2.png,left,n,0.0,m,1.8941588999996384,1.0,6.0,decision,40.0,65.0,90.0,120.0,140.0,700.0,1.7,2,-1.8941588999996384,0.0,sub-005,P,high_OV,high_abs,h_OV_h_pain,high_abs_h_pain,1.7,2,2,4.674605582585691,2.674605582585691,0.02196999365747027
sub-005,p4,m5,,4,12000.0,stimuli/p4.png,stimuli/m5.png,left,n,1.0,n,0.9724946999999702,1.0,7.0,decision,40.0,65.0,90.0,120.0,140.0,700.0,1.9,5,0.9724946999999702,1.0,sub-005,M,high_OV,low_abs,h_OV_h_money,low_abs_h_money,1.9,5,5,3.739684466068553,-1.260315533931447,0.9986583956452638
sub-005,p3,m4,,3,9000.0,stimuli/m4.png,stimuli/p3.png,left,n,1.0,n,1.3536855000002106,1.0,8.0,decision,40.0,65.0,90.0,120.0,140.0,700.0,1.9,4,1.3536855000002106,1.0,sub-005,M,high_OV,low_abs,h_OV_h_money,low_abs_h_money,1.9,4,4,2.804763349551415,-1.195236650448585,0.9984067804871296
sub-005,p3,m2,,3,9000.0,stimuli/p3.png,stimuli/m2.png,left,n,1.0,n,2.311088899999959,1.0,9.0,decision,40.0,65.0,90.0,120.0,140.0,700.0,1.9,2,2.311088899999959,1.0,sub-005,P,low_OV,low_abs,low_OV_h_pain,low_abs_h_pain,1.9,2,2,2.804763349551415,0.8047633495514148,0.7595342923577522
sub-005,p3,m5,,3,9000.0,stimuli/p3.png,stimuli/m5.png,left,n,1.0,n,0.7434337999998206,1.0,10.0,decision,40.0,65.0,90.0,120.0,140.0,700.0,1.9,5,0.7434337999998206,1.0,sub-005,M,high_OV,mid_abs,h_OV_h_money,mid_abs,1.9,5,5,2.804763349551415,-2.195236650448585,0.9998867208293086
sub-005,p2,m4,,2,6500.0,stimuli/p2.png,stimuli/m4.png,left,n,1.0,n,1.114860900000167,1.0,11.0,decision,40.0,65.0,90.0,120.0,140.0,700.0,1.9,4,1.114860900000167,1.0,sub-005,M,high_OV,mid_abs,h_OV_h_money,mid_abs,1.9,4,4,1.869842233034277,-2.130157766965723,0.9998654445129067
sub-005,p1,m5,,1,4000.0,stimuli/m5.png,stimuli/p1.png,left,n,1.0,n,0.6243192000001727,1.0,12.0,decision,40.0,65.0,90.0,120.0,140.0,700.0,1.8,5,0.6243192000001727,1.0,sub-005,M,high_OV,high_abs,h_OV_h_money,high_abs_h_money,1.8,5,5,0.9349211165171383,-4.065078883482862,0.9999991942831855
sub-005,p1,m1,,1,4000.0,stimuli/m1.png,stimuli/p1.png,left,n,1.0,n,0.6935783999997511,1.0,13.0,decision,40.0,65.0,90.0,120.0,140.0,700.0,1.9,1,0.6935783999997511,1.0,sub-005,I,low_OV,low_abs,low_OV_h_pain,low_abs_h_pain,1.9,1,1,0.9349211165171383,-0.06507888348286173,0.9692603743600091
sub-005,p5,m1,,5,14000.0,stimuli/m1.png,stimuli/p5.png,left,n,0.0,m,0.7985733000000437,1.0,14.0,decision,40.0,65.0,90.0,120.0,140.0,700.0,2.0,1,-0.7985733000000437,0.0,sub-005,P,high_OV,high_abs,h_OV_h_pain,high_abs_h_pain,2.0,1,1,4.674605582585691,3.674605582585691,0.001592270511127458
sub-005,p1,m3,,1,4000.0,stimuli/m3.png,stimuli/p1.png,left,n,1.0,n,1.2087968000000728,1.0,15.0,decision,40.0,65.0,90.0,120.0,140.0,700.0,1.6,3,1.2087968000000728,1.0,sub-005,M,low_OV,mid_abs,low_OV_h_money,mid_abs,1.6,3,3,0.9349211165171383,-2.065078883482862,0.9998401726757238
sub-005,p4,m2,,4,12000.0,stimuli/m2.png,stimuli/p4.png,left,n,0.0,m,1.8774561000000176,1.0,16.0,decision,40.0,65.0,90.0,120.0,140.0,700.0,1.9,2,-1.8774561000000176,0.0,sub-005,P,high_OV,mid_abs,h_OV_h_pain,mid_abs,1.9,2,2,3.739684466068553,1.739684466068553,0.2103416306965135
sub-005,p4,m3,,4,12000.0,stimuli/p4.png,stimuli/m3.png,left,n,1.0,n,2.6861927999998443,1.0,17.0,decision,40.0,65.0,90.0,120.0,140.0,700.0,1.9,3,2.6861927999998443,1.0,sub-005,P,high_OV,low_abs,h_OV_h_pain,low_abs_h_pain,1.9,3,3,3.739684466068553,0.7396844660685531,0.7895592284652022
sub-005,p2,m1,,2,6500.0,stimuli/m1.png,stimuli/p2.png,left,n,0.0,m,2.2913367999999537,1.0,18.0,decision,40.0,65.0,90.0,120.0,140.0,700.0,1.5,1,-2.2913367999999537,0.0,sub-005,P,low_OV,low_abs,low_OV_h_pain,low_abs_h_pain,1.5,1,1,1.869842233034277,0.8698422330342765,0.7267082835501901
sub-005,p1,m4,,1,4000.0,stimuli/p1.png,stimuli/m4.png,left,n,1.0,n,1.3267820000000938,1.0,19.0,decision,40.0,65.0,90.0,120.0,140.0,700.0,1.7,4,1.3267820000000938,1.0,sub-005,M,low_OV,high_abs,low_OV_h_money,high_abs_h_money,1.7,4,4,0.9349211165171383,-3.065078883482862,0.9999886512851746
sub-005,p5,m4,,5,14000.0,stimuli/p5.png,stimuli/m4.png,left,n,0.0,m,1.3851924000000508,1.0,20.0,decision,40.0,65.0,90.0,120.0,140.0,700.0,1.9,4,-1.3851924000000508,0.0,sub-005,P,high_OV,low_abs,h_OV_h_pain,low_abs_h_pain,1.9,4,4,4.674605582585691,0.6746055825856914,0.8167397512472142
sub-005,p4,m1,,4,12000.0,stimuli/p4.png,stimuli/m1.png,left,n,0.0,m,1.2080307999999604,1.0,21.0,decision,40.0,65.0,90.0,120.0,140.0,700.0,1.6,1,-1.2080307999999604,0.0,sub-005,P,low_OV,high_abs,low_OV_h_pain,high_abs_h_pain,1.6,1,1,3.739684466068553,2.739684466068553,0.01856012337516503
sub-005,p2,m2,,2,6500.0,stimuli/p2.png,stimuli/m2.png,left,n,1.0,n,1.0585567999996783,1.0,22.0,decision,40.0,65.0,90.0,120.0,140.0,700.0,1.5,2,1.0585567999996783,1.0,sub-005,I,low_OV,low_abs,low_OV_h_pain,low_abs_h_pain,1.5,2,2,1.869842233034277,-0.1301577669657235,0.9739951520887278
sub-005,p1,m2,,1,4000.0,stimuli/m2.png,stimuli/p1.png,left,n,1.0,n,1.1178500999999414,1.0,23.0,decision,40.0,65.0,90.0,120.0,140.0,700.0,1.7,2,1.1178500999999414,1.0,sub-005,M,low_OV,low_abs,low_OV_h_money,low_abs_h_money,1.7,2,2,0.9349211165171383,-1.065078883482862,0.9977534684225569
sub-005,p2,m3,,2,6500.0,stimuli/m3.png,stimuli/p2.png,left,n,1.0,n,0.6731516000004376,1.0,24.0,decision,40.0,65.0,90.0,120.0,140.0,700.0,1.8,3,0.6731516000004376,1.0,sub-005,M,low_OV,low_abs,low_OV_h_money,low_abs_h_money,1.8,3,3,1.869842233034277,-1.130157766965723,0.9981080648198947
sub-005,p1,m1,,1,4000.0,stimuli/p1.png,stimuli/m1.png,left,n,1.0,n,0.8019987999996374,2.0,0.0,decision,40.0,65.0,90.0,120.0,140.0,700.0,1.9,1,0.8019987999996374,1.0,sub-005,I,low_OV,low_abs,low_OV_h_pain,low_abs_h_pain,1.9,1,1,0.9349211165171383,-0.06507888348286173,0.9692603743600091
sub-005,p5,m2,,5,14000.0,stimuli/p5.png,stimuli/m2.png,left,n,0.0,m,0.8276092999999491,2.0,1.0,decision,40.0,65.0,90.0,120.0,140.0,700.0,1.5,2,-0.8276092999999491,0.0,sub-005,P,high_OV,high_abs,h_OV_h_pain,high_abs_h_pain,1.5,2,2,4.674605582585691,2.674605582585691,0.02196999365747027
sub-005,p1,m4,,1,4000.0,stimuli/m4.png,stimuli/p1.png,left,n,1.0,n,0.6054166999997506,2.0,2.0,decision,40.0,65.0,90.0,120.0,140.0,700.0,1.5,4,0.6054166999997506,1.0,sub-005,M,low_OV,high_abs,low_OV_h_money,high_abs_h_money,1.5,4,4,0.9349211165171383,-3.065078883482862,0.9999886512851746
sub-005,p2,m2,,2,6500.0,stimuli/p2.png,stimuli/m2.png,left,n,1.0,n,0.7078838000002179,2.0,3.0,decision,40.0,65.0,90.0,120.0,140.0,700.0,1.8,2,0.7078838000002179,1.0,sub-005,I,low_OV,low_abs,low_OV_h_pain,low_abs_h_pain,1.8,2,2,1.869842233034277,-0.1301577669657235,0.9739951520887278
sub-005,p3,m4,,3,9000.0,stimuli/p3.png,stimuli/m4.png,left,n,1.0,n,1.0182971000003818,2.0,4.0,decision,40.0,65.0,90.0,120.0,140.0,700.0,1.9,4,1.0182971000003818,1.0,sub-005,M,high_OV,low_abs,h_OV_h_money,low_abs_h_money,1.9,4,4,2.804763349551415,-1.195236650448585,0.9984067804871296
sub-005,p2,m5,,2,6500.0,stimuli/p2.png,stimuli/m5.png,left,n,1.0,n,1.0687361999998757,2.0,5.0,decision,40.0,65.0,90.0,120.0,140.0,700.0,1.5,5,1.0687361999998757,1.0,sub-005,M,high_OV,high_abs,h_OV_h_money,high_abs_h_money,1.5,5,5,1.869842233034277,-3.130157766965723,0.9999904459640895
sub-005,p4,m5,,4,12000.0,stimuli/m5.png,stimuli/p4.png,left,n,1.0,n,1.1656035999999403,2.0,6.0,decision,40.0,65.0,90.0,120.0,140.0,700.0,1.8,5,1.1656035999999403,1.0,sub-005,M,high_OV,low_abs,h_OV_h_money,low_abs_h_money,1.8,5,5,3.739684466068553,-1.260315533931447,0.9986583956452638
sub-005,p4,m1,,4,12000.0,stimuli/m1.png,stimuli/p4.png,left,n,0.0,m,1.7912756000000627,2.0,7.0,decision,40.0,65.0,90.0,120.0,140.0,700.0,1.5,1,-1.7912756000000627,0.0,sub-005,P,low_OV,high_abs,low_OV_h_pain,high_abs_h_pain,1.5,1,1,3.739684466068553,2.739684466068553,0.01856012337516503
sub-005,p1,m5,,1,4000.0,stimuli/p1.png,stimuli/m5.png,left,n,1.0,n,1.0723440000001574,2.0,8.0,decision,40.0,65.0,90.0,120.0,140.0,700.0,1.8,5,1.0723440000001574,1.0,sub-005,M,high_OV,high_abs,h_OV_h_money,high_abs_h_money,1.8,5,5,0.9349211165171383,-4.065078883482862,0.9999991942831855
sub-005,p3,m2,,3,9000.0,stimuli/m2.png,stimuli/p3.png,left,n,1.0,n,1.672677499999736,2.0,9.0,decision,40.0,65.0,90.0,120.0,140.0,700.0,1.6,2,1.672677499999736,1.0,sub-005,P,low_OV,low_abs,low_OV_h_pain,low_abs_h_pain,1.6,2,2,2.804763349551415,0.8047633495514148,0.7595342923577522
sub-005,p5,m4,,5,14000.0,stimuli/p5.png,stimuli/m4.png,left,n,1.0,n,1.3895526999999674,2.0,10.0,decision,40.0,65.0,90.0,120.0,140.0,700.0,1.6,4,1.3895526999999674,1.0,sub-005,P,high_OV,low_abs,h_OV_h_pain,low_abs_h_pain,1.6,4,4,4.674605582585691,0.6746055825856914,0.8167397512472142
sub-005,p5,m5,,5,14000.0,stimuli/m5.png,stimuli/p5.png,left,n,1.0,n,1.1670635999998922,2.0,11.0,decision,40.0,65.0,90.0,120.0,140.0,700.0,1.7,5,1.1670635999998922,1.0,sub-005,I,high_OV,low_abs,h_OV_h_pain,low_abs_h_pain,1.7,5,5,4.674605582585691,-0.3253944174143086,0.984319786961111
sub-005,p5,m1,,5,14000.0,stimuli/m1.png,stimuli/p5.png,left,n,0.0,m,1.223141399999804,2.0,12.0,decision,40.0,65.0,90.0,120.0,140.0,700.0,1.9,1,-1.223141399999804,0.0,sub-005,P,high_OV,high_abs,h_OV_h_pain,high_abs_h_pain,1.9,1,1,4.674605582585691,3.674605582585691,0.001592270511127458
sub-005,p2,m1,,2,6500.0,stimuli/m1.png,stimuli/p2.png,left,n,1.0,n,1.8947787000001883,2.0,13.0,decision,40.0,65.0,90.0,120.0,140.0,700.0,1.9,1,1.8947787000001883,1.0,sub-005,P,low_OV,low_abs,low_OV_h_pain,low_abs_h_pain,1.9,1,1,1.869842233034277,0.8698422330342765,0.7267082835501901
sub-005,p2,m3,,2,6500.0,stimuli/p2.png,stimuli/m3.png,left,n,1.0,n,1.1869474000000082,2.0,14.0,decision,40.0,65.0,90.0,120.0,140.0,700.0,1.9,3,1.1869474000000082,1.0,sub-005,M,low_OV,low_abs,low_OV_h_money,low_abs_h_money,1.9,3,3,1.869842233034277,-1.130157766965723,0.9981080648198947
sub-005,p4,m3,,4,12000.0,stimuli/m3.png,stimuli/p4.png,left,n,0.0,m,2.320025099999839,2.0,15.0,decision,40.0,65.0,90.0,120.0,140.0,700.0,1.5,3,-2.320025099999839,0.0,sub-005,P,high_OV,low_abs,h_OV_h_pain,low_abs_h_pain,1.5,3,3,3.739684466068553,0.7396844660685531,0.7895592284652022
sub-005,p2,m4,,2,6500.0,stimuli/p2.png,stimuli/m4.png,left,n,1.0,n,0.910756499999934,2.0,16.0,decision,40.0,65.0,90.0,120.0,140.0,700.0,1.5,4,0.910756499999934,1.0,sub-005,M,high_OV,mid_abs,h_OV_h_money,mid_abs,1.5,4,4,1.869842233034277,-2.130157766965723,0.9998654445129067
sub-005,p1,m3,,1,4000.0,stimuli/m3.png,stimuli/p1.png,left,n,1.0,n,1.1004221999996844,2.0,18.0,decision,40.0,65.0,90.0,120.0,140.0,700.0,1.9,3,1.1004221999996844,1.0,sub-005,M,low_OV,mid_abs,low_OV_h_money,mid_abs,1.9,3,3,0.9349211165171383,-2.065078883482862,0.9998401726757238
sub-005,p4,m4,,4,12000.0,stimuli/m4.png,stimuli/p4.png,left,n,1.0,n,0.7074317999999948,2.0,19.0,decision,40.0,65.0,90.0,120.0,140.0,700.0,1.8,4,0.7074317999999948,1.0,sub-005,I,high_OV,low_abs,h_OV_h_pain,low_abs_h_pain,1.8,4,4,3.739684466068553,-0.2603155339314469,0.9814290027987419
sub-005,p3,m5,,3,9000.0,stimuli/p3.png,stimuli/m5.png,left,n,1.0,n,0.9933833999998568,2.0,20.0,decision,40.0,65.0,90.0,120.0,140.0,700.0,1.7,5,0.9933833999998568,1.0,sub-005,M,high_OV,mid_abs,h_OV_h_money,mid_abs,1.7,5,5,2.804763349551415,-2.195236650448585,0.9998867208293086
sub-005,p1,m2,,1,4000.0,stimuli/p1.png,stimuli/m2.png,left,n,1.0,n,1.0981958000002123,2.0,21.0,decision,40.0,65.0,90.0,120.0,140.0,700.0,1.6,2,1.0981958000002123,1.0,sub-005,M,low_OV,low_abs,low_OV_h_money,low_abs_h_money,1.6,2,2,0.9349211165171383,-1.065078883482862,0.9977534684225569
sub-005,p4,m2,,4,12000.0,stimuli/p4.png,stimuli/m2.png,left,n,0.0,m,1.4998484000002463,2.0,22.0,decision,40.0,65.0,90.0,120.0,140.0,700.0,2.0,2,-1.4998484000002463,0.0,sub-005,P,high_OV,mid_abs,h_OV_h_pain,mid_abs,2.0,2,2,3.739684466068553,1.739684466068553,0.2103416306965135
sub-005,p3,m1,,3,9000.0,stimuli/p3.png,stimuli/m1.png,left,n,0.0,m,1.5813438000000133,2.0,23.0,decision,40.0,65.0,90.0,120.0,140.0,700.0,1.9,1,-1.5813438000000133,0.0,sub-005,P,low_OV,mid_abs,low_OV_h_pain,mid_abs,1.9,1,1,2.804763349551415,1.804763349551415,0.1831709422856893
sub-005,p3,m3,,3,9000.0,stimuli/p3.png,stimuli/m3.png,left,n,1.0,n,0.733887699999741,2.0,24.0,decision,40.0,65.0,90.0,120.0,140.0,700.0,2.0,3,0.733887699999741,1.0,sub-005,I,high_OV,low_abs,h_OV_h_pain,low_abs_h_pain,2.0,3,3,2.804763349551415,-0.1952366504485852,0.9780171795210223
sub-005,p4,m2,,4,12000.0,stimuli/m2.png,stimuli/p4.png,left,n,0.0,m,2.3523025999998017,3.0,0.0,decision,40.0,65.0,90.0,120.0,140.0,700.0,1.6,2,-2.3523025999998017,0.0,sub-005,P,high_OV,mid_abs,h_OV_h_pain,mid_abs,1.6,2,2,3.739684466068553,1.739684466068553,0.2103416306965135
sub-005,p2,m3,,2,6500.0,stimuli/p2.png,stimuli/m3.png,left,n,1.0,n,2.243234499999744,3.0,1.0,decision,40.0,65.0,90.0,120.0,140.0,700.0,1.7,3,2.243234499999744,1.0,sub-005,M,low_OV,low_abs,low_OV_h_money,low_abs_h_money,1.7,3,3,1.869842233034277,-1.130157766965723,0.9981080648198947
sub-005,p3,m2,,3,9000.0,stimuli/m2.png,stimuli/p3.png,left,n,1.0,n,2.5006600000001526,3.0,2.0,decision,40.0,65.0,90.0,120.0,140.0,700.0,1.6,2,2.5006600000001526,1.0,sub-005,P,low_OV,low_abs,low_OV_h_pain,low_abs_h_pain,1.6,2,2,2.804763349551415,0.8047633495514148,0.7595342923577522
sub-005,p5,m2,,5,14000.0,stimuli/p5.png,stimuli/m2.png,left,n,0.0,m,0.8427525000001879,3.0,3.0,decision,40.0,65.0,90.0,120.0,140.0,700.0,1.9,2,-0.8427525000001879,0.0,sub-005,P,high_OV,high_abs,h_OV_h_pain,high_abs_h_pain,1.9,2,2,4.674605582585691,2.674605582585691,0.02196999365747027
sub-005,p2,m2,,2,6500.0,stimuli/m2.png,stimuli/p2.png,left,n,1.0,n,0.6786635999997088,3.0,4.0,decision,40.0,65.0,90.0,120.0,140.0,700.0,1.5,2,0.6786635999997088,1.0,sub-005,I,low_OV,low_abs,low_OV_h_pain,low_abs_h_pain,1.5,2,2,1.869842233034277,-0.1301577669657235,0.9739951520887278
sub-005,p5,m4,,5,14000.0,stimuli/p5.png,stimuli/m4.png,left,n,1.0,n,0.991587399999844,3.0,5.0,decision,40.0,65.0,90.0,120.0,140.0,700.0,1.8,4,0.991587399999844,1.0,sub-005,P,high_OV,low_abs,h_OV_h_pain,low_abs_h_pain,1.8,4,4,4.674605582585691,0.6746055825856914,0.8167397512472142
sub-005,p1,m4,,1,4000.0,stimuli/m4.png,stimuli/p1.png,left,n,1.0,n,0.8895024000003104,3.0,6.0,decision,40.0,65.0,90.0,120.0,140.0,700.0,1.8,4,0.8895024000003104,1.0,sub-005,M,low_OV,high_abs,low_OV_h_money,high_abs_h_money,1.8,4,4,0.9349211165171383,-3.065078883482862,0.9999886512851746
sub-005,p1,m5,,1,4000.0,stimuli/p1.png,stimuli/m5.png,left,n,1.0,n,0.8136054999999942,3.0,7.0,decision,40.0,65.0,90.0,120.0,140.0,700.0,2.0,5,0.8136054999999942,1.0,sub-005,M,high_OV,high_abs,h_OV_h_money,high_abs_h_money,2.0,5,5,0.9349211165171383,-4.065078883482862,0.9999991942831855
sub-005,p2,m4,,2,6500.0,stimuli/m4.png,stimuli/p2.png,left,n,1.0,n,0.5660965000001852,3.0,8.0,decision,40.0,65.0,90.0,120.0,140.0,700.0,1.7,4,0.5660965000001852,1.0,sub-005,M,high_OV,mid_abs,h_OV_h_money,mid_abs,1.7,4,4,1.869842233034277,-2.130157766965723,0.9998654445129067
sub-005,p5,m5,,5,14000.0,stimuli/p5.png,stimuli/m5.png,left,n,1.0,n,1.1462354999998752,3.0,9.0,decision,40.0,65.0,90.0,120.0,140.0,700.0,1.9,5,1.1462354999998752,1.0,sub-005,I,high_OV,low_abs,h_OV_h_pain,low_abs_h_pain,1.9,5,5,4.674605582585691,-0.3253944174143086,0.984319786961111
sub-005,p1,m2,,1,4000.0,stimuli/m2.png,stimuli/p1.png,left,n,1.0,n,0.8025913999999829,3.0,10.0,decision,40.0,65.0,90.0,120.0,140.0,700.0,2.0,2,0.8025913999999829,1.0,sub-005,M,low_OV,low_abs,low_OV_h_money,low_abs_h_money,2.0,2,2,0.9349211165171383,-1.065078883482862,0.9977534684225569
sub-005,p1,m3,,1,4000.0,stimuli/p1.png,stimuli/m3.png,left,n,1.0,n,0.8291558999999324,3.0,11.0,decision,40.0,65.0,90.0,120.0,140.0,700.0,2.0,3,0.8291558999999324,1.0,sub-005,M,low_OV,mid_abs,low_OV_h_money,mid_abs,2.0,3,3,0.9349211165171383,-2.065078883482862,0.9998401726757238
sub-005,p3,m3,,3,9000.0,stimuli/m3.png,stimuli/p3.png,left,n,1.0,n,0.6165158999997402,3.0,12.0,decision,40.0,65.0,90.0,120.0,140.0,700.0,1.6,3,0.6165158999997402,1.0,sub-005,I,high_OV,low_abs,h_OV_h_pain,low_abs_h_pain,1.6,3,3,2.804763349551415,-0.1952366504485852,0.9780171795210223
sub-005,p3,m5,,3,9000.0,stimuli/p3.png,stimuli/m5.png,left,n,1.0,n,0.7572328000001107,3.0,13.0,decision,40.0,65.0,90.0,120.0,140.0,700.0,1.5,5,0.7572328000001107,1.0,sub-005,M,high_OV,mid_abs,h_OV_h_money,mid_abs,1.5,5,5,2.804763349551415,-2.195236650448585,0.9998867208293086
sub-005,p2,m5,,2,6500.0,stimuli/p2.png,stimuli/m5.png,left,n,1.0,n,0.6269595000003392,3.0,14.0,decision,40.0,65.0,90.0,120.0,140.0,700.0,1.8,5,0.6269595000003392,1.0,sub-005,M,high_OV,high_abs,h_OV_h_money,high_abs_h_money,1.8,5,5,1.869842233034277,-3.130157766965723,0.9999904459640895
sub-005,p5,m3,,5,14000.0,stimuli/p5.png,stimuli/m3.png,left,n,1.0,n,1.6784891999996034,3.0,15.0,decision,40.0,65.0,90.0,120.0,140.0,700.0,1.5,3,1.6784891999996034,1.0,sub-005,P,high_OV,mid_abs,h_OV_h_pain,mid_abs,1.5,3,3,4.674605582585691,1.674605582585691,0.2403567277671539
sub-005,p3,m1,,3,9000.0,stimuli/m1.png,stimuli/p3.png,left,n,0.0,m,0.843529999999646,3.0,16.0,decision,40.0,65.0,90.0,120.0,140.0,700.0,1.6,1,-0.843529999999646,0.0,sub-005,P,low_OV,mid_abs,low_OV_h_pain,mid_abs,1.6,1,1,2.804763349551415,1.804763349551415,0.1831709422856893
sub-005,p4,m5,,4,12000.0,stimuli/p4.png,stimuli/m5.png,left,n,1.0,n,0.9497102000000268,3.0,17.0,decision,40.0,65.0,90.0,120.0,140.0,700.0,1.5,5,0.9497102000000268,1.0,sub-005,M,high_OV,low_abs,h_OV_h_money,low_abs_h_money,1.5,5,5,3.739684466068553,-1.260315533931447,0.9986583956452638
sub-005,p4,m1,,4,12000.0,stimuli/p4.png,stimuli/m1.png,left,n,0.0,m,1.4192750999995951,3.0,18.0,decision,40.0,65.0,90.0,120.0,140.0,700.0,1.8,1,-1.4192750999995951,0.0,sub-005,P,low_OV,high_abs,low_OV_h_pain,high_abs_h_pain,1.8,1,1,3.739684466068553,2.739684466068553,0.01856012337516503
sub-005,p4,m3,,4,12000.0,stimuli/p4.png,stimuli/m3.png,left,n,0.0,m,1.5288073999995504,3.0,19.0,decision,40.0,65.0,90.0,120.0,140.0,700.0,1.7,3,-1.5288073999995504,0.0,sub-005,P,high_OV,low_abs,h_OV_h_pain,low_abs_h_pain,1.7,3,3,3.739684466068553,0.7396844660685531,0.7895592284652022
sub-005,p3,m4,,3,9000.0,stimuli/m4.png,stimuli/p3.png,left,n,1.0,n,0.6184221999997135,3.0,20.0,decision,40.0,65.0,90.0,120.0,140.0,700.0,1.5,4,0.6184221999997135,1.0,sub-005,M,high_OV,low_abs,h_OV_h_money,low_abs_h_money,1.5,4,4,2.804763349551415,-1.195236650448585,0.9984067804871296
sub-005,p5,m1,,5,14000.0,stimuli/p5.png,stimuli/m1.png,left,n,0.0,m,0.9355369999998402,3.0,21.0,decision,40.0,65.0,90.0,120.0,140.0,700.0,1.8,1,-0.9355369999998402,0.0,sub-005,P,high_OV,high_abs,h_OV_h_pain,high_abs_h_pain,1.8,1,1,4.674605582585691,3.674605582585691,0.001592270511127458
sub-005,p4,m4,,4,12000.0,stimuli/m4.png,stimuli/p4.png,left,n,1.0,n,1.4888708000003137,3.0,22.0,decision,40.0,65.0,90.0,120.0,140.0,700.0,1.6,4,1.4888708000003137,1.0,sub-005,I,high_OV,low_abs,h_OV_h_pain,low_abs_h_pain,1.6,4,4,3.739684466068553,-0.2603155339314469,0.9814290027987419
sub-005,p2,m1,,2,6500.0,stimuli/m1.png,stimuli/p2.png,left,n,1.0,n,1.5153913999997712,3.0,23.0,decision,40.0,65.0,90.0,120.0,140.0,700.0,1.6,1,1.5153913999997712,1.0,sub-005,P,low_OV,low_abs,low_OV_h_pain,low_abs_h_pain,1.6,1,1,1.869842233034277,0.8698422330342765,0.7267082835501901
sub-005,p1,m1,,1,4000.0,stimuli/p1.png,stimuli/m1.png,left,n,1.0,n,0.7477994000005309,3.0,24.0,decision,40.0,65.0,90.0,120.0,140.0,700.0,1.5,1,0.7477994000005309,1.0,sub-005,I,low_OV,low_abs,low_OV_h_pain,low_abs_h_pain,1.5,1,1,0.9349211165171383,-0.06507888348286173,0.9692603743600091
sub-005,p1,m4,,1,4000.0,stimuli/m4.png,stimuli/p1.png,left,n,1.0,n,0.8687715000000935,4.0,0.0,decision,40.0,65.0,90.0,120.0,140.0,700.0,1.8,4,0.8687715000000935,1.0,sub-005,M,low_OV,high_abs,low_OV_h_money,high_abs_h_money,1.8,4,4,0.9349211165171383,-3.065078883482862,0.9999886512851746
sub-005,p2,m2,,2,6500.0,stimuli/p2.png,stimuli/m2.png,left,n,1.0,n,0.6275479999999334,4.0,1.0,decision,40.0,65.0,90.0,120.0,140.0,700.0,1.6,2,0.6275479999999334,1.0,sub-005,I,low_OV,low_abs,low_OV_h_pain,low_abs_h_pain,1.6,2,2,1.869842233034277,-0.1301577669657235,0.9739951520887278
sub-005,p4,m5,,4,12000.0,stimuli/m5.png,stimuli/p4.png,left,n,1.0,n,0.9717021999999816,4.0,2.0,decision,40.0,65.0,90.0,120.0,140.0,700.0,1.7,5,0.9717021999999816,1.0,sub-005,M,high_OV,low_abs,h_OV_h_money,low_abs_h_money,1.7,5,5,3.739684466068553,-1.260315533931447,0.9986583956452638
sub-005,p5,m2,,5,14000.0,stimuli/m2.png,stimuli/p5.png,left,n,0.0,m,0.9824934999992364,4.0,3.0,decision,40.0,65.0,90.0,120.0,140.0,700.0,1.6,2,-0.9824934999992364,0.0,sub-005,P,high_OV,high_abs,h_OV_h_pain,high_abs_h_pain,1.6,2,2,4.674605582585691,2.674605582585691,0.02196999365747027
sub-005,p1,m1,,1,4000.0,stimuli/m1.png,stimuli/p1.png,left,n,1.0,n,0.8431088000002092,4.0,4.0,decision,40.0,65.0,90.0,120.0,140.0,700.0,1.9,1,0.8431088000002092,1.0,sub-005,I,low_OV,low_abs,low_OV_h_pain,low_abs_h_pain,1.9,1,1,0.9349211165171383,-0.06507888348286173,0.9692603743600091
sub-005,p1,m2,,1,4000.0,stimuli/p1.png,stimuli/m2.png,left,n,1.0,n,1.3664086999992833,4.0,5.0,decision,40.0,65.0,90.0,120.0,140.0,700.0,1.6,2,1.3664086999992833,1.0,sub-005,M,low_OV,low_abs,low_OV_h_money,low_abs_h_money,1.6,2,2,0.9349211165171383,-1.065078883482862,0.9977534684225569
sub-005,p1,m3,,1,4000.0,stimuli/p1.png,stimuli/m3.png,left,n,1.0,n,0.5520341999995253,4.0,6.0,decision,40.0,65.0,90.0,120.0,140.0,700.0,1.5,3,0.5520341999995253,1.0,sub-005,M,low_OV,mid_abs,low_OV_h_money,mid_abs,1.5,3,3,0.9349211165171383,-2.065078883482862,0.9998401726757238
sub-005,p3,m5,,3,9000.0,stimuli/p3.png,stimuli/m5.png,left,n,1.0,n,0.8332624999998188,4.0,7.0,decision,40.0,65.0,90.0,120.0,140.0,700.0,1.6,5,0.8332624999998188,1.0,sub-005,M,high_OV,mid_abs,h_OV_h_money,mid_abs,1.6,5,5,2.804763349551415,-2.195236650448585,0.9998867208293086
sub-005,p2,m4,,2,6500.0,stimuli/p2.png,stimuli/m4.png,left,n,1.0,n,0.5453213000005235,4.0,8.0,decision,40.0,65.0,90.0,120.0,140.0,700.0,1.9,4,0.5453213000005235,1.0,sub-005,M,high_OV,mid_abs,h_OV_h_money,mid_abs,1.9,4,4,1.869842233034277,-2.130157766965723,0.9998654445129067
sub-005,p5,m4,,5,14000.0,stimuli/p5.png,stimuli/m4.png,left,n,1.0,n,1.0874199999993834,4.0,9.0,decision,40.0,65.0,90.0,120.0,140.0,700.0,1.9,4,1.0874199999993834,1.0,sub-005,P,high_OV,low_abs,h_OV_h_pain,low_abs_h_pain,1.9,4,4,4.674605582585691,0.6746055825856914,0.8167397512472142
sub-005,p4,m4,,4,12000.0,stimuli/p4.png,stimuli/m4.png,left,n,1.0,n,0.8742598000003454,4.0,10.0,decision,40.0,65.0,90.0,120.0,140.0,700.0,1.7,4,0.8742598000003454,1.0,sub-005,I,high_OV,low_abs,h_OV_h_pain,low_abs_h_pain,1.7,4,4,3.739684466068553,-0.2603155339314469,0.9814290027987419
sub-005,p5,m3,,5,14000.0,stimuli/p5.png,stimuli/m3.png,left,n,1.0,n,1.7140434999996614,4.0,11.0,decision,40.0,65.0,90.0,120.0,140.0,700.0,1.9,3,1.7140434999996614,1.0,sub-005,P,high_OV,mid_abs,h_OV_h_pain,mid_abs,1.9,3,3,4.674605582585691,1.674605582585691,0.2403567277671539
