participant;painstim;moneystim;all_trials_rewards;painlevel;painlevel_J;leftstim;rightstim;acceptside;acceptkey;accepted;choice_resp.keys;choice_resp.rt;blocks.thisRepN;trials.thisN;TaskName;P1;P2;P3;P4;P5;fail_ma;fixduration;moneylevel
sub-002;p2;m2;;2.0;30500.0;stimuli/p2.png;stimuli/m2.png;right;m;0.0;;;0.0;0.0;decision;205.0;305.0;415.0;530.0;660.0;700.0;1.5;2.0
sub-002;p1;m2;;1.0;20500.0;stimuli/m2.png;stimuli/p1.png;right;m;1.0;m;1.3291009999993548;0.0;1.0;decision;205.0;305.0;415.0;530.0;660.0;700.0;1.8;2.0
sub-002;p3;m2;;3.0;41500.0;stimuli/p3.png;stimuli/m2.png;right;m;1.0;m;0.91960889999973;0.0;2.0;decision;205.0;305.0;415.0;530.0;660.0;700.0;1.5;2.0
sub-002;p4;m4;;4.0;53000.0;stimuli/p4.png;stimuli/m4.png;right;m;1.0;m;0.9543577000004008;0.0;3.0;decision;205.0;305.0;415.0;530.0;660.0;700.0;1.9;4.0
sub-002;p4;m2;;4.0;53000.0;stimuli/p4.png;stimuli/m2.png;right;m;1.0;m;1.3423058999997008;0.0;4.0;decision;205.0;305.0;415.0;530.0;660.0;700.0;1.6;2.0
sub-002;p4;m3;;4.0;53000.0;stimuli/p4.png;stimuli/m3.png;right;m;1.0;m;0.8743370000011055;0.0;5.0;decision;205.0;305.0;415.0;530.0;660.0;700.0;1.7;3.0
sub-002;p2;m3;;2.0;30500.0;stimuli/p2.png;stimuli/m3.png;right;m;1.0;m;0.9069684000005508;0.0;6.0;decision;205.0;305.0;415.0;530.0;660.0;700.0;2.0;3.0
sub-002;p3;m5;;3.0;41500.0;stimuli/p3.png;stimuli/m5.png;right;m;1.0;m;0.9792395000004036;0.0;7.0;decision;205.0;305.0;415.0;530.0;660.0;700.0;1.7;5.0
sub-002;p5;m1;;5.0;66000.0;stimuli/m1.png;stimuli/p5.png;right;m;0.0;;;0.0;8.0;decision;205.0;305.0;415.0;530.0;660.0;700.0;2.0;1.0
sub-002;p2;m4;;2.0;30500.0;stimuli/p2.png;stimuli/m4.png;right;m;1.0;m;0.6974529000017355;0.0;9.0;decision;205.0;305.0;415.0;530.0;660.0;700.0;1.5;4.0
sub-002;p4;m5;;4.0;53000.0;stimuli/m5.png;stimuli/p4.png;right;m;1.0;m;0.8919903000005434;0.0;10.0;decision;205.0;305.0;415.0;530.0;660.0;700.0;2.0;5.0
sub-002;p1;m1;;1.0;20500.0;stimuli/p1.png;stimuli/m1.png;right;m;1.0;m;0.7937033999987761;0.0;11.0;decision;205.0;305.0;415.0;530.0;660.0;700.0;1.6;1.0
sub-002;p5;m4;;5.0;66000.0;stimuli/m4.png;stimuli/p5.png;right;m;1.0;m;0.9585715000011988;0.0;12.0;decision;205.0;305.0;415.0;530.0;660.0;700.0;1.5;4.0
sub-002;p2;m1;;2.0;30500.0;stimuli/m1.png;stimuli/p2.png;right;m;1.0;m;0.7253421000004892;0.0;13.0;decision;205.0;305.0;415.0;530.0;660.0;700.0;1.9;1.0
sub-002;p1;m3;;1.0;20500.0;stimuli/m3.png;stimuli/p1.png;right;m;1.0;m;0.7238062000014907;0.0;14.0;decision;205.0;305.0;415.0;530.0;660.0;700.0;1.9;3.0
sub-002;p5;m3;;5.0;66000.0;stimuli/m3.png;stimuli/p5.png;right;m;1.0;m;0.8921475000006467;0.0;15.0;decision;205.0;305.0;415.0;530.0;660.0;700.0;1.5;3.0
sub-002;p3;m3;;3.0;41500.0;stimuli/m3.png;stimuli/p3.png;right;m;1.0;m;0.6956635000005917;0.0;16.0;decision;205.0;305.0;415.0;530.0;660.0;700.0;1.9;3.0
sub-002;p2;m5;;2.0;30500.0;stimuli/p2.png;stimuli/m5.png;right;m;1.0;m;0.7756065000012313;0.0;17.0;decision;205.0;305.0;415.0;530.0;660.0;700.0;1.5;5.0
sub-002;p1;m5;;1.0;20500.0;stimuli/p1.png;stimuli/m5.png;right;m;1.0;m;0.6312133000010363;0.0;18.0;decision;205.0;305.0;415.0;530.0;660.0;700.0;1.5;5.0
sub-002;p1;m4;;1.0;20500.0;stimuli/p1.png;stimuli/m4.png;right;m;1.0;m;0.6095313999994687;0.0;19.0;decision;205.0;305.0;415.0;530.0;660.0;700.0;1.6;4.0
sub-002;p3;m1;;3.0;41500.0;stimuli/m1.png;stimuli/p3.png;right;m;1.0;m;0.748071500000151;0.0;20.0;decision;205.0;305.0;415.0;530.0;660.0;700.0;1.7;1.0
sub-002;p5;m2;;5.0;66000.0;stimuli/m2.png;stimuli/p5.png;right;m;1.0;m;0.9947190000002591;0.0;21.0;decision;205.0;305.0;415.0;530.0;660.0;700.0;1.5;2.0
sub-002;p3;m4;;3.0;41500.0;stimuli/p3.png;stimuli/m4.png;right;m;1.0;m;0.7080361000007542;0.0;22.0;decision;205.0;305.0;415.0;530.0;660.0;700.0;1.8;4.0
sub-002;p4;m1;;4.0;53000.0;stimuli/p4.png;stimuli/m1.png;right;m;1.0;m;0.6855746000001091;0.0;23.0;decision;205.0;305.0;415.0;530.0;660.0;700.0;1.8;1.0
sub-002;p5;m5;;5.0;66000.0;stimuli/p5.png;stimuli/m5.png;right;m;1.0;m;0.6708612999991601;0.0;24.0;decision;205.0;305.0;415.0;530.0;660.0;700.0;1.7;5.0
sub-002;p2;m2;;2.0;30500.0;stimuli/m2.png;stimuli/p2.png;right;m;1.0;m;0.6821433999994042;1.0;0.0;decision;205.0;305.0;415.0;530.0;660.0;700.0;1.8;2.0
sub-002;p2;m1;;2.0;30500.0;stimuli/m1.png;stimuli/p2.png;right;m;1.0;m;1.2083457999997336;1.0;1.0;decision;205.0;305.0;415.0;530.0;660.0;700.0;1.7;1.0
sub-002;p1;m5;;1.0;20500.0;stimuli/m5.png;stimuli/p1.png;right;m;1.0;m;0.6609789999984059;1.0;2.0;decision;205.0;305.0;415.0;530.0;660.0;700.0;1.6;5.0
sub-002;p5;m5;;5.0;66000.0;stimuli/m5.png;stimuli/p5.png;right;m;1.0;m;0.5350167000015063;1.0;3.0;decision;205.0;305.0;415.0;530.0;660.0;700.0;1.9;5.0
sub-002;p3;m2;;3.0;41500.0;stimuli/m2.png;stimuli/p3.png;right;m;1.0;m;0.7264359000000695;1.0;4.0;decision;205.0;305.0;415.0;530.0;660.0;700.0;1.7;2.0
sub-002;p3;m1;;3.0;41500.0;stimuli/p3.png;stimuli/m1.png;right;m;1.0;m;0.4941044000006513;1.0;5.0;decision;205.0;305.0;415.0;530.0;660.0;700.0;1.5;1.0
sub-002;p4;m1;;4.0;53000.0;stimuli/m1.png;stimuli/p4.png;right;m;1.0;m;1.6311606999988726;1.0;6.0;decision;205.0;305.0;415.0;530.0;660.0;700.0;1.9;1.0
sub-002;p5;m4;;5.0;66000.0;stimuli/p5.png;stimuli/m4.png;right;m;1.0;m;0.7706639999996696;1.0;7.0;decision;205.0;305.0;415.0;530.0;660.0;700.0;1.5;4.0
sub-002;p1;m2;;1.0;20500.0;stimuli/p1.png;stimuli/m2.png;right;m;1.0;m;0.6876931999995577;1.0;8.0;decision;205.0;305.0;415.0;530.0;660.0;700.0;1.5;2.0
sub-002;p4;m4;;4.0;53000.0;stimuli/p4.png;stimuli/m4.png;right;m;1.0;m;0.6642520000004879;1.0;9.0;decision;205.0;305.0;415.0;530.0;660.0;700.0;2.0;4.0
sub-002;p4;m5;;4.0;53000.0;stimuli/p4.png;stimuli/m5.png;right;m;1.0;m;0.6768885999990744;1.0;10.0;decision;205.0;305.0;415.0;530.0;660.0;700.0;1.8;5.0
sub-002;p1;m4;;1.0;20500.0;stimuli/m4.png;stimuli/p1.png;right;m;1.0;m;0.5704630000000179;1.0;11.0;decision;205.0;305.0;415.0;530.0;660.0;700.0;1.8;4.0
sub-002;p3;m5;;3.0;41500.0;stimuli/p3.png;stimuli/m5.png;right;m;1.0;m;0.6061291999994864;1.0;12.0;decision;205.0;305.0;415.0;530.0;660.0;700.0;1.9;5.0
sub-002;p5;m1;;5.0;66000.0;stimuli/p5.png;stimuli/m1.png;right;m;1.0;m;0.6491211000011391;1.0;13.0;decision;205.0;305.0;415.0;530.0;660.0;700.0;1.8;1.0
sub-002;p2;m5;;2.0;30500.0;stimuli/p2.png;stimuli/m5.png;right;m;1.0;m;0.7414446999991924;1.0;14.0;decision;205.0;305.0;415.0;530.0;660.0;700.0;1.8;5.0
sub-002;p2;m3;;2.0;30500.0;stimuli/p2.png;stimuli/m3.png;right;m;1.0;m;0.6434161000015592;1.0;15.0;decision;205.0;305.0;415.0;530.0;660.0;700.0;1.7;3.0
sub-002;p4;m2;;4.0;53000.0;stimuli/p4.png;stimuli/m2.png;right;m;1.0;m;0.9690012999999452;1.0;16.0;decision;205.0;305.0;415.0;530.0;660.0;700.0;2.0;2.0
sub-002;p3;m4;;3.0;41500.0;stimuli/p3.png;stimuli/m4.png;right;m;1.0;m;0.5966304999983549;1.0;17.0;decision;205.0;305.0;415.0;530.0;660.0;700.0;1.7;4.0
sub-002;p4;m3;;4.0;53000.0;stimuli/p4.png;stimuli/m3.png;right;m;1.0;m;0.9324085000007472;1.0;18.0;decision;205.0;305.0;415.0;530.0;660.0;700.0;1.5;3.0
sub-002;p3;m3;;3.0;41500.0;stimuli/m3.png;stimuli/p3.png;right;m;1.0;m;0.5464453999993566;1.0;19.0;decision;205.0;305.0;415.0;530.0;660.0;700.0;2.0;3.0
sub-002;p2;m4;;2.0;30500.0;stimuli/p2.png;stimuli/m4.png;right;m;1.0;m;0.5726339000011649;1.0;20.0;decision;205.0;305.0;415.0;530.0;660.0;700.0;1.6;4.0
sub-002;p1;m1;;1.0;20500.0;stimuli/m1.png;stimuli/p1.png;right;m;1.0;m;2.6889069000008017;1.0;21.0;decision;205.0;305.0;415.0;530.0;660.0;700.0;1.9;1.0
sub-002;p5;m2;;5.0;66000.0;stimuli/m2.png;stimuli/p5.png;right;m;1.0;m;0.4532328000004781;1.0;22.0;decision;205.0;305.0;415.0;530.0;660.0;700.0;1.9;2.0
sub-002;p1;m3;;1.0;20500.0;stimuli/p1.png;stimuli/m3.png;right;m;1.0;m;0.534575900001073;1.0;23.0;decision;205.0;305.0;415.0;530.0;660.0;700.0;2.0;3.0
sub-002;p5;m3;;5.0;66000.0;stimuli/p5.png;stimuli/m3.png;right;m;1.0;m;0.5625657000000501;1.0;24.0;decision;205.0;305.0;415.0;530.0;660.0;700.0;1.8;3.0
sub-002;p3;m4;;3.0;41500.0;stimuli/m4.png;stimuli/p3.png;right;m;1.0;m;0.5399084000000585;2.0;0.0;decision;205.0;305.0;415.0;530.0;660.0;700.0;1.8;4.0
sub-002;p4;m4;;4.0;53000.0;stimuli/p4.png;stimuli/m4.png;right;m;1.0;m;0.4002994000002218;2.0;1.0;decision;205.0;305.0;415.0;530.0;660.0;700.0;1.7;4.0
sub-002;p2;m4;;2.0;30500.0;stimuli/p2.png;stimuli/m4.png;right;m;1.0;m;0.4257575999999972;2.0;2.0;decision;205.0;305.0;415.0;530.0;660.0;700.0;1.8;4.0
sub-002;p2;m2;;2.0;30500.0;stimuli/m2.png;stimuli/p2.png;right;m;1.0;m;0.5451631999985693;2.0;3.0;decision;205.0;305.0;415.0;530.0;660.0;700.0;1.6;2.0
sub-002;p2;m5;;2.0;30500.0;stimuli/m5.png;stimuli/p2.png;right;m;1.0;m;0.8715085000003455;2.0;4.0;decision;205.0;305.0;415.0;530.0;660.0;700.0;1.6;5.0
sub-002;p4;m2;;4.0;53000.0;stimuli/p4.png;stimuli/m2.png;right;m;1.0;m;0.5991358999999647;2.0;5.0;decision;205.0;305.0;415.0;530.0;660.0;700.0;1.5;2.0
sub-002;p1;m5;;1.0;20500.0;stimuli/m5.png;stimuli/p1.png;right;m;1.0;m;0.6157034999996539;2.0;6.0;decision;205.0;305.0;415.0;530.0;660.0;700.0;1.9;5.0
sub-002;p1;m3;;1.0;20500.0;stimuli/p1.png;stimuli/m3.png;right;m;1.0;m;0.6341179000010015;2.0;7.0;decision;205.0;305.0;415.0;530.0;660.0;700.0;2.0;3.0
sub-002;p1;m1;;1.0;20500.0;stimuli/p1.png;stimuli/m1.png;right;m;1.0;m;0.5671124000000418;2.0;8.0;decision;205.0;305.0;415.0;530.0;660.0;700.0;1.7;1.0
sub-002;p3;m3;;3.0;41500.0;stimuli/m3.png;stimuli/p3.png;right;m;1.0;m;0.5069935000010446;2.0;9.0;decision;205.0;305.0;415.0;530.0;660.0;700.0;1.5;3.0
sub-002;p5;m2;;5.0;66000.0;stimuli/m2.png;stimuli/p5.png;right;m;1.0;m;0.5167516999990767;2.0;10.0;decision;205.0;305.0;415.0;530.0;660.0;700.0;1.8;2.0
sub-002;p2;m1;;2.0;30500.0;stimuli/m1.png;stimuli/p2.png;right;m;1.0;m;0.5335536999991746;2.0;11.0;decision;205.0;305.0;415.0;530.0;660.0;700.0;2.0;1.0
sub-002;p2;m3;;2.0;30500.0;stimuli/p2.png;stimuli/m3.png;right;m;1.0;m;0.4881967999990593;2.0;12.0;decision;205.0;305.0;415.0;530.0;660.0;700.0;1.7;3.0
sub-002;p4;m5;;4.0;53000.0;stimuli/m5.png;stimuli/p4.png;right;m;1.0;m;0.5932035000005271;2.0;13.0;decision;205.0;305.0;415.0;530.0;660.0;700.0;1.9;5.0
sub-002;p3;m1;;3.0;41500.0;stimuli/p3.png;stimuli/m1.png;right;m;1.0;m;0.6822682000001805;2.0;14.0;decision;205.0;305.0;415.0;530.0;660.0;700.0;2.0;1.0
sub-002;p5;m1;;5.0;66000.0;stimuli/m1.png;stimuli/p5.png;right;m;1.0;m;0.4931909000006271;2.0;15.0;decision;205.0;305.0;415.0;530.0;660.0;700.0;1.8;1.0
sub-002;p5;m3;;5.0;66000.0;stimuli/m3.png;stimuli/p5.png;right;m;1.0;m;0.6877876999988075;2.0;16.0;decision;205.0;305.0;415.0;530.0;660.0;700.0;1.6;3.0
sub-002;p4;m1;;4.0;53000.0;stimuli/m1.png;stimuli/p4.png;right;m;1.0;m;0.5969356000005064;2.0;17.0;decision;205.0;305.0;415.0;530.0;660.0;700.0;1.9;1.0
sub-002;p5;m4;;5.0;66000.0;stimuli/p5.png;stimuli/m4.png;right;m;1.0;m;0.5863202000000456;2.0;18.0;decision;205.0;305.0;415.0;530.0;660.0;700.0;1.9;4.0
sub-002;p4;m3;;4.0;53000.0;stimuli/m3.png;stimuli/p4.png;right;m;1.0;m;0.6090944000006857;2.0;19.0;decision;205.0;305.0;415.0;530.0;660.0;700.0;1.8;3.0
sub-002;p3;m5;;3.0;41500.0;stimuli/p3.png;stimuli/m5.png;right;m;1.0;m;0.9539483999997174;2.0;20.0;decision;205.0;305.0;415.0;530.0;660.0;700.0;2.0;5.0
sub-002;p1;m2;;1.0;20500.0;stimuli/p1.png;stimuli/m2.png;right;m;1.0;m;1.0842507999986992;2.0;21.0;decision;205.0;305.0;415.0;530.0;660.0;700.0;1.7;2.0
sub-002;p1;m4;;1.0;20500.0;stimuli/p1.png;stimuli/m4.png;right;m;1.0;m;1.3102749000008769;2.0;22.0;decision;205.0;305.0;415.0;530.0;660.0;700.0;2.0;4.0
sub-002;p3;m2;;3.0;41500.0;stimuli/m2.png;stimuli/p3.png;right;m;1.0;m;0.6415235000004031;2.0;23.0;decision;205.0;305.0;415.0;530.0;660.0;700.0;1.5;2.0
sub-002;p5;m5;;5.0;66000.0;stimuli/p5.png;stimuli/m5.png;right;m;1.0;m;0.6709386999991693;2.0;24.0;decision;205.0;305.0;415.0;530.0;660.0;700.0;1.6;5.0
sub-002;p3;m4;;3.0;41500.0;stimuli/m4.png;stimuli/p3.png;right;m;1.0;m;0.662922499999695;3.0;0.0;decision;205.0;305.0;415.0;530.0;660.0;700.0;1.5;4.0
sub-002;p5;m3;;5.0;66000.0;stimuli/p5.png;stimuli/m3.png;right;m;1.0;m;0.6330360000010842;3.0;1.0;decision;205.0;305.0;415.0;530.0;660.0;700.0;1.7;3.0
sub-002;p3;m3;;3.0;41500.0;stimuli/p3.png;stimuli/m3.png;right;m;1.0;m;1.0968819999998232;3.0;2.0;decision;205.0;305.0;415.0;530.0;660.0;700.0;1.8;3.0
sub-002;p2;m3;;2.0;30500.0;stimuli/p2.png;stimuli/m3.png;right;m;1.0;m;0.8422852000003331;3.0;3.0;decision;205.0;305.0;415.0;530.0;660.0;700.0;1.6;3.0
sub-002;p4;m1;;4.0;53000.0;stimuli/m1.png;stimuli/p4.png;right;m;1.0;m;1.1118544000000838;3.0;4.0;decision;205.0;305.0;415.0;530.0;660.0;700.0;1.7;1.0
sub-002;p3;m5;;3.0;41500.0;stimuli/p3.png;stimuli/m5.png;right;m;1.0;m;0.9033259000007092;3.0;5.0;decision;205.0;305.0;415.0;530.0;660.0;700.0;1.9;5.0
sub-002;p1;m3;;1.0;20500.0;stimuli/p1.png;stimuli/m3.png;right;m;1.0;m;1.2235259000008227;3.0;6.0;decision;205.0;305.0;415.0;530.0;660.0;700.0;1.5;3.0
sub-002;p1;m5;;1.0;20500.0;stimuli/m5.png;stimuli/p1.png;right;m;1.0;m;0.7473749999990105;3.0;7.0;decision;205.0;305.0;415.0;530.0;660.0;700.0;1.9;5.0
sub-002;p4;m3;;4.0;53000.0;stimuli/m3.png;stimuli/p4.png;right;m;1.0;m;0.6583551999992778;3.0;8.0;decision;205.0;305.0;415.0;530.0;660.0;700.0;1.8;3.0
sub-002;p4;m2;;4.0;53000.0;stimuli/m2.png;stimuli/p4.png;right;m;1.0;m;1.0008488999992549;3.0;9.0;decision;205.0;305.0;415.0;530.0;660.0;700.0;1.7;2.0
sub-002;p5;m5;;5.0;66000.0;stimuli/m5.png;stimuli/p5.png;right;m;1.0;m;0.7246494000009989;3.0;10.0;decision;205.0;305.0;415.0;530.0;660.0;700.0;2.0;5.0
sub-002;p3;m1;;3.0;41500.0;stimuli/p3.png;stimuli/m1.png;right;m;1.0;m;0.9659451000006812;3.0;11.0;decision;205.0;305.0;415.0;530.0;660.0;700.0;2.0;1.0
sub-002;p2;m2;;2.0;30500.0;stimuli/p2.png;stimuli/m2.png;right;m;1.0;m;0.8002789999991364;3.0;12.0;decision;205.0;305.0;415.0;530.0;660.0;700.0;1.9;2.0
sub-002;p5;m1;;5.0;66000.0;stimuli/p5.png;stimuli/m1.png;right;m;1.0;m;0.6502927999990789;3.0;13.0;decision;205.0;305.0;415.0;530.0;660.0;700.0;2.0;1.0
sub-002;p2;m5;;2.0;30500.0;stimuli/m5.png;stimuli/p2.png;right;m;1.0;m;0.6896688999986509;3.0;14.0;decision;205.0;305.0;415.0;530.0;660.0;700.0;2.0;5.0
sub-002;p4;m4;;4.0;53000.0;stimuli/p4.png;stimuli/m4.png;right;m;1.0;m;1.1721199000003253;3.0;15.0;decision;205.0;305.0;415.0;530.0;660.0;700.0;1.8;4.0
sub-002;p2;m1;;2.0;30500.0;stimuli/m1.png;stimuli/p2.png;right;m;1.0;m;0.5866513000000849;3.0;16.0;decision;205.0;305.0;415.0;530.0;660.0;700.0;1.5;1.0
sub-002;p3;m2;;3.0;41500.0;stimuli/m2.png;stimuli/p3.png;right;m;1.0;m;0.7892116999992141;3.0;17.0;decision;205.0;305.0;415.0;530.0;660.0;700.0;1.7;2.0
sub-002;p1;m2;;1.0;20500.0;stimuli/p1.png;stimuli/m2.png;right;m;1.0;m;0.5667936999998346;3.0;18.0;decision;205.0;305.0;415.0;530.0;660.0;700.0;1.6;2.0
sub-002;p2;m4;;2.0;30500.0;stimuli/p2.png;stimuli/m4.png;right;m;1.0;m;0.4936348999999609;3.0;19.0;decision;205.0;305.0;415.0;530.0;660.0;700.0;1.7;4.0
sub-002;p5;m2;;5.0;66000.0;stimuli/m2.png;stimuli/p5.png;right;m;1.0;m;0.809183800000028;3.0;20.0;decision;205.0;305.0;415.0;530.0;660.0;700.0;1.5;2.0
sub-002;p4;m5;;4.0;53000.0;stimuli/p4.png;stimuli/m5.png;right;m;1.0;m;1.0006483000015578;3.0;21.0;decision;205.0;305.0;415.0;530.0;660.0;700.0;1.8;5.0
sub-002;p1;m4;;1.0;20500.0;stimuli/m4.png;stimuli/p1.png;right;m;1.0;m;0.7201496999987285;3.0;22.0;decision;205.0;305.0;415.0;530.0;660.0;700.0;2.0;4.0
sub-002;p5;m4;;5.0;66000.0;stimuli/p5.png;stimuli/m4.png;right;m;1.0;m;0.7082707999998092;3.0;23.0;decision;205.0;305.0;415.0;530.0;660.0;700.0;1.8;4.0
sub-002;p1;m1;;1.0;20500.0;stimuli/p1.png;stimuli/m1.png;right;m;1.0;m;0.7113503000000492;3.0;24.0;decision;205.0;305.0;415.0;530.0;660.0;700.0;1.9;1.0
sub-002;p4;m1;;4.0;53000.0;stimuli/m1.png;stimuli/p4.png;right;m;1.0;m;0.8221876999996311;4.0;0.0;decision;205.0;305.0;415.0;530.0;660.0;700.0;1.5;1.0
sub-002;p1;m4;;1.0;20500.0;stimuli/m4.png;stimuli/p1.png;right;m;1.0;m;1.2261822999989818;4.0;1.0;decision;205.0;305.0;415.0;530.0;660.0;700.0;1.8;4.0
sub-002;p3;m5;;3.0;41500.0;stimuli/p3.png;stimuli/m5.png;right;m;1.0;m;0.7069886000008408;4.0;2.0;decision;205.0;305.0;415.0;530.0;660.0;700.0;2.0;5.0
sub-002;p5;m3;;5.0;66000.0;stimuli/p5.png;stimuli/m3.png;right;m;1.0;m;0.6646188000013353;4.0;3.0;decision;205.0;305.0;415.0;530.0;660.0;700.0;1.7;3.0
sub-002;p5;m4;;5.0;66000.0;stimuli/p5.png;stimuli/m4.png;right;m;1.0;m;1.0719834999999875;4.0;4.0;decision;205.0;305.0;415.0;530.0;660.0;700.0;1.7;4.0
sub-002;p3;m3;;3.0;41500.0;stimuli/m3.png;stimuli/p3.png;right;m;1.0;m;0.6301718000013352;4.0;5.0;decision;205.0;305.0;415.0;530.0;660.0;700.0;1.7;3.0
sub-002;p5;m1;;5.0;66000.0;stimuli/p5.png;stimuli/m1.png;right;m;1.0;m;0.6467382999999245;4.0;6.0;decision;205.0;305.0;415.0;530.0;660.0;700.0;1.9;1.0
sub-002;p4;m4;;4.0;53000.0;stimuli/p4.png;stimuli/m4.png;right;m;1.0;m;1.1031271000010747;4.0;7.0;decision;205.0;305.0;415.0;530.0;660.0;700.0;1.6;4.0
sub-002;p2;m3;;2.0;30500.0;stimuli/p2.png;stimuli/m3.png;right;m;1.0;m;1.1210179999998218;4.0;8.0;decision;205.0;305.0;415.0;530.0;660.0;700.0;1.6;3.0
sub-002;p2;m2;;2.0;30500.0;stimuli/p2.png;stimuli/m2.png;right;m;1.0;m;0.9959436999997706;4.0;9.0;decision;205.0;305.0;415.0;530.0;660.0;700.0;1.8;2.0
sub-002;p3;m4;;3.0;41500.0;stimuli/m4.png;stimuli/p3.png;right;m;1.0;m;1.0130503000000315;4.0;10.0;decision;205.0;305.0;415.0;530.0;660.0;700.0;1.5;4.0
sub-002;p4;m2;;4.0;53000.0;stimuli/m2.png;stimuli/p4.png;right;m;1.0;m;0.5697804999999789;4.0;11.0;decision;205.0;305.0;415.0;530.0;660.0;700.0;2.0;2.0
sub-002;p3;m2;;3.0;41500.0;stimuli/m2.png;stimuli/p3.png;right;m;1.0;m;0.9230928999986644;4.0;12.0;decision;205.0;305.0;415.0;530.0;660.0;700.0;2.0;2.0
sub-002;p2;m1;;2.0;30500.0;stimuli/m1.png;stimuli/p2.png;right;m;1.0;m;0.9011984000007942;4.0;13.0;decision;205.0;305.0;415.0;530.0;660.0;700.0;1.9;1.0
sub-002;p3;m1;;3.0;41500.0;stimuli/p3.png;stimuli/m1.png;right;m;1.0;m;0.9795821999996406;4.0;14.0;decision;205.0;305.0;415.0;530.0;660.0;700.0;1.9;1.0
sub-002;p1;m5;;1.0;20500.0;stimuli/p1.png;stimuli/m5.png;right;m;1.0;m;0.7467195999997784;4.0;15.0;decision;205.0;305.0;415.0;530.0;660.0;700.0;1.5;5.0
sub-002;p2;m4;;2.0;30500.0;stimuli/p2.png;stimuli/m4.png;right;m;1.0;m;0.7862592000001314;4.0;16.0;decision;205.0;305.0;415.0;530.0;660.0;700.0;1.5;4.0
sub-002;p5;m2;;5.0;66000.0;stimuli/p5.png;stimuli/m2.png;right;m;1.0;m;1.3833281999995959;4.0;17.0;decision;205.0;305.0;415.0;530.0;660.0;700.0;2.0;2.0
sub-002;p2;m5;;2.0;30500.0;stimuli/m5.png;stimuli/p2.png;right;m;1.0;m;0.8680178999984491;4.0;18.0;decision;205.0;305.0;415.0;530.0;660.0;700.0;2.0;5.0
sub-002;p4;m5;;4.0;53000.0;stimuli/m5.png;stimuli/p4.png;right;m;1.0;m;0.8522302000001218;4.0;19.0;decision;205.0;305.0;415.0;530.0;660.0;700.0;1.8;5.0
sub-002;p1;m3;;1.0;20500.0;stimuli/p1.png;stimuli/m3.png;right;m;1.0;m;1.2107565000005711;4.0;20.0;decision;205.0;305.0;415.0;530.0;660.0;700.0;1.6;3.0
sub-002;p5;m5;;5.0;66000.0;stimuli/m5.png;stimuli/p5.png;right;m;1.0;m;0.7517984999994951;4.0;21.0;decision;205.0;305.0;415.0;530.0;660.0;700.0;1.9;5.0
sub-002;p1;m2;;1.0;20500.0;stimuli/m2.png;stimuli/p1.png;right;m;1.0;m;0.7093295999984548;4.0;22.0;decision;205.0;305.0;415.0;530.0;660.0;700.0;1.9;2.0
sub-002;p1;m1;;1.0;20500.0;stimuli/m1.png;stimuli/p1.png;right;m;1.0;m;0.5869326000010915;4.0;23.0;decision;205.0;305.0;415.0;530.0;660.0;700.0;2.0;1.0
sub-002;p4;m3;;4.0;53000.0;stimuli/p4.png;stimuli/m3.png;right;m;1.0;m;0.8535441999993054;4.0;24.0;decision;205.0;305.0;415.0;530.0;660.0;700.0;2.0;3.0
sub-004;p1;m1;;1.0;2500.0;stimuli/m1.png;stimuli/p1.png;right;m;0.0;;;0.0;0.0;decision;25.0;35.0;45.0;55.0;70.0;700.0;1.5;1.0
sub-004;p5;m4;;5.0;7000.0;stimuli/m4.png;stimuli/p5.png;right;m;1.0;m;1.7301915000007284;0.0;1.0;decision;25.0;35.0;45.0;55.0;70.0;700.0;1.6;4.0
sub-004;p3;m3;;3.0;4500.0;stimuli/p3.png;stimuli/m3.png;right;m;1.0;m;1.1684452000008605;0.0;2.0;decision;25.0;35.0;45.0;55.0;70.0;700.0;1.7;3.0
sub-004;p4;m3;;4.0;5500.0;stimuli/p4.png;stimuli/m3.png;right;m;1.0;m;1.5461812000012287;0.0;3.0;decision;25.0;35.0;45.0;55.0;70.0;700.0;2.0;3.0
sub-004;p2;m3;;2.0;3500.0;stimuli/m3.png;stimuli/p2.png;right;m;1.0;m;1.4278101999989303;0.0;4.0;decision;25.0;35.0;45.0;55.0;70.0;700.0;1.5;3.0
sub-004;p4;m4;;4.0;5500.0;stimuli/m4.png;stimuli/p4.png;right;m;1.0;m;0.8169334000012896;0.0;5.0;decision;25.0;35.0;45.0;55.0;70.0;700.0;1.6;4.0
sub-004;p3;m2;;3.0;4500.0;stimuli/p3.png;stimuli/m2.png;right;m;1.0;m;2.1770488000020123;0.0;6.0;decision;25.0;35.0;45.0;55.0;70.0;700.0;2.0;2.0
sub-004;p3;m5;;3.0;4500.0;stimuli/m5.png;stimuli/p3.png;right;m;1.0;m;1.2978426999998192;0.0;7.0;decision;25.0;35.0;45.0;55.0;70.0;700.0;1.7;5.0
sub-004;p1;m2;;1.0;2500.0;stimuli/m2.png;stimuli/p1.png;right;m;1.0;m;1.7638176000018575;0.0;8.0;decision;25.0;35.0;45.0;55.0;70.0;700.0;1.7;2.0
sub-004;p4;m2;;4.0;5500.0;stimuli/m2.png;stimuli/p4.png;right;m;0.0;n;2.0673202999987548;0.0;9.0;decision;25.0;35.0;45.0;55.0;70.0;700.0;1.6;2.0
sub-004;p4;m5;;4.0;5500.0;stimuli/p4.png;stimuli/m5.png;right;m;1.0;m;1.2359462999993411;0.0;10.0;decision;25.0;35.0;45.0;55.0;70.0;700.0;2.0;5.0
sub-004;p5;m1;;5.0;7000.0;stimuli/m1.png;stimuli/p5.png;right;m;1.0;m;1.3500662000005832;0.0;11.0;decision;25.0;35.0;45.0;55.0;70.0;700.0;1.8;1.0
sub-004;p5;m5;;5.0;7000.0;stimuli/p5.png;stimuli/m5.png;right;m;1.0;m;1.1315730000005717;0.0;12.0;decision;25.0;35.0;45.0;55.0;70.0;700.0;1.9;5.0
sub-004;p1;m4;;1.0;2500.0;stimuli/p1.png;stimuli/m4.png;right;m;1.0;m;1.0449235000014596;0.0;13.0;decision;25.0;35.0;45.0;55.0;70.0;700.0;1.7;4.0
sub-004;p5;m2;;5.0;7000.0;stimuli/p5.png;stimuli/m2.png;right;m;0.0;n;2.1598057999999583;0.0;14.0;decision;25.0;35.0;45.0;55.0;70.0;700.0;1.5;2.0
sub-004;p2;m1;;2.0;3500.0;stimuli/m1.png;stimuli/p2.png;right;m;1.0;m;1.6354921000020113;0.0;15.0;decision;25.0;35.0;45.0;55.0;70.0;700.0;1.8;1.0
sub-004;p2;m5;;2.0;3500.0;stimuli/m5.png;stimuli/p2.png;right;m;1.0;m;1.17842980000205;0.0;16.0;decision;25.0;35.0;45.0;55.0;70.0;700.0;2.0;5.0
sub-004;p3;m1;;3.0;4500.0;stimuli/m1.png;stimuli/p3.png;right;m;0.0;n;1.8013424999990093;0.0;17.0;decision;25.0;35.0;45.0;55.0;70.0;700.0;1.8;1.0
sub-004;p2;m4;;2.0;3500.0;stimuli/p2.png;stimuli/m4.png;right;m;1.0;m;1.7335461000002397;0.0;18.0;decision;25.0;35.0;45.0;55.0;70.0;700.0;1.9;4.0
sub-004;p2;m2;;2.0;3500.0;stimuli/m2.png;stimuli/p2.png;right;m;1.0;m;1.0072597000016683;0.0;19.0;decision;25.0;35.0;45.0;55.0;70.0;700.0;1.8;2.0
sub-004;p3;m4;;3.0;4500.0;stimuli/p3.png;stimuli/m4.png;right;m;1.0;m;1.2446808000004241;0.0;20.0;decision;25.0;35.0;45.0;55.0;70.0;700.0;1.6;4.0
sub-004;p5;m3;;5.0;7000.0;stimuli/p5.png;stimuli/m3.png;right;m;1.0;m;1.2778207999999722;0.0;21.0;decision;25.0;35.0;45.0;55.0;70.0;700.0;2.0;3.0
sub-004;p1;m5;;1.0;2500.0;stimuli/m5.png;stimuli/p1.png;right;m;1.0;m;1.0526995000000172;0.0;22.0;decision;25.0;35.0;45.0;55.0;70.0;700.0;1.5;5.0
sub-004;p4;m1;;4.0;5500.0;stimuli/p4.png;stimuli/m1.png;right;m;0.0;n;1.7689074000008986;0.0;23.0;decision;25.0;35.0;45.0;55.0;70.0;700.0;1.5;1.0
sub-004;p1;m3;;1.0;2500.0;stimuli/m3.png;stimuli/p1.png;right;m;1.0;m;1.1898421999994753;0.0;24.0;decision;25.0;35.0;45.0;55.0;70.0;700.0;1.7;3.0
sub-004;p1;m4;;1.0;2500.0;stimuli/p1.png;stimuli/m4.png;right;m;1.0;m;1.3538705999999363;1.0;0.0;decision;25.0;35.0;45.0;55.0;70.0;700.0;2.0;4.0
sub-004;p2;m3;;2.0;3500.0;stimuli/m3.png;stimuli/p2.png;right;m;1.0;m;1.3586207999996986;1.0;1.0;decision;25.0;35.0;45.0;55.0;70.0;700.0;2.0;3.0
sub-004;p3;m3;;3.0;4500.0;stimuli/p3.png;stimuli/m3.png;right;m;1.0;m;0.8449774999990041;1.0;2.0;decision;25.0;35.0;45.0;55.0;70.0;700.0;1.7;3.0
sub-004;p4;m4;;4.0;5500.0;stimuli/m4.png;stimuli/p4.png;right;m;1.0;m;0.8607930999987728;1.0;3.0;decision;25.0;35.0;45.0;55.0;70.0;700.0;1.7;4.0
sub-004;p1;m5;;1.0;2500.0;stimuli/p1.png;stimuli/m5.png;right;m;1.0;m;1.3498227000000045;1.0;4.0;decision;25.0;35.0;45.0;55.0;70.0;700.0;1.6;5.0
sub-004;p2;m1;;2.0;3500.0;stimuli/p2.png;stimuli/m1.png;right;m;1.0;m;2.700657200000933;1.0;5.0;decision;25.0;35.0;45.0;55.0;70.0;700.0;1.9;1.0
sub-004;p5;m5;;5.0;7000.0;stimuli/m5.png;stimuli/p5.png;right;m;1.0;m;0.8970133000002534;1.0;6.0;decision;25.0;35.0;45.0;55.0;70.0;700.0;1.5;5.0
sub-004;p4;m3;;4.0;5500.0;stimuli/m3.png;stimuli/p4.png;right;m;1.0;m;1.3868420000017068;1.0;7.0;decision;25.0;35.0;45.0;55.0;70.0;700.0;1.8;3.0
sub-004;p1;m2;;1.0;2500.0;stimuli/m2.png;stimuli/p1.png;right;m;1.0;m;1.1734837000003608;1.0;8.0;decision;25.0;35.0;45.0;55.0;70.0;700.0;1.9;2.0
sub-004;p3;m4;;3.0;4500.0;stimuli/p3.png;stimuli/m4.png;right;m;1.0;m;1.1152976000012131;1.0;9.0;decision;25.0;35.0;45.0;55.0;70.0;700.0;1.9;4.0
sub-004;p5;m2;;5.0;7000.0;stimuli/p5.png;stimuli/m2.png;right;m;0.0;n;1.4175247000002855;1.0;10.0;decision;25.0;35.0;45.0;55.0;70.0;700.0;2.0;2.0
sub-004;p4;m1;;4.0;5500.0;stimuli/p4.png;stimuli/m1.png;right;m;0.0;n;1.6560908000010386;1.0;11.0;decision;25.0;35.0;45.0;55.0;70.0;700.0;1.7;1.0
sub-004;p4;m5;;4.0;5500.0;stimuli/m5.png;stimuli/p4.png;right;m;1.0;m;1.6821669000019028;1.0;12.0;decision;25.0;35.0;45.0;55.0;70.0;700.0;1.5;5.0
sub-004;p3;m2;;3.0;4500.0;stimuli/p3.png;stimuli/m2.png;right;m;1.0;m;2.1055408000011084;1.0;13.0;decision;25.0;35.0;45.0;55.0;70.0;700.0;1.6;2.0
sub-004;p5;m4;;5.0;7000.0;stimuli/p5.png;stimuli/m4.png;right;m;1.0;m;1.3623618000001445;1.0;14.0;decision;25.0;35.0;45.0;55.0;70.0;700.0;1.5;4.0
sub-004;p1;m3;;1.0;2500.0;stimuli/p1.png;stimuli/m3.png;right;m;1.0;m;1.0964609000020569;1.0;15.0;decision;25.0;35.0;45.0;55.0;70.0;700.0;2.0;3.0
sub-004;p2;m2;;2.0;3500.0;stimuli/m2.png;stimuli/p2.png;right;m;1.0;m;0.7444066999996721;1.0;16.0;decision;25.0;35.0;45.0;55.0;70.0;700.0;2.0;2.0
sub-004;p1;m1;;1.0;2500.0;stimuli/p1.png;stimuli/m1.png;right;m;1.0;m;0.7451733000016247;1.0;17.0;decision;25.0;35.0;45.0;55.0;70.0;700.0;1.8;1.0
sub-004;p3;m5;;3.0;4500.0;stimuli/p3.png;stimuli/m5.png;right;m;1.0;m;1.1377515000003768;1.0;18.0;decision;25.0;35.0;45.0;55.0;70.0;700.0;2.0;5.0
sub-004;p4;m2;;4.0;5500.0;stimuli/p4.png;stimuli/m2.png;right;m;1.0;m;1.4422255999998017;1.0;19.0;decision;25.0;35.0;45.0;55.0;70.0;700.0;1.7;2.0
sub-004;p5;m1;;5.0;7000.0;stimuli/p5.png;stimuli/m1.png;right;m;0.0;n;1.2256261000002269;1.0;20.0;decision;25.0;35.0;45.0;55.0;70.0;700.0;2.0;1.0
sub-004;p5;m3;;5.0;7000.0;stimuli/m3.png;stimuli/p5.png;right;m;1.0;m;1.113462500001333;1.0;21.0;decision;25.0;35.0;45.0;55.0;70.0;700.0;1.5;3.0
sub-004;p2;m4;;2.0;3500.0;stimuli/m4.png;stimuli/p2.png;right;m;1.0;m;2.36951819999922;1.0;22.0;decision;25.0;35.0;45.0;55.0;70.0;700.0;1.8;4.0
sub-004;p2;m5;;2.0;3500.0;stimuli/m5.png;stimuli/p2.png;right;m;1.0;m;1.3072464000015316;1.0;23.0;decision;25.0;35.0;45.0;55.0;70.0;700.0;1.8;5.0
sub-004;p3;m1;;3.0;4500.0;stimuli/p3.png;stimuli/m1.png;right;m;1.0;m;1.8380306000017301;1.0;24.0;decision;25.0;35.0;45.0;55.0;70.0;700.0;1.6;1.0
sub-004;p1;m2;;1.0;2500.0;stimuli/m2.png;stimuli/p1.png;right;m;1.0;m;1.491417300001558;2.0;0.0;decision;25.0;35.0;45.0;55.0;70.0;700.0;1.6;2.0
sub-004;p5;m2;;5.0;7000.0;stimuli/p5.png;stimuli/m2.png;right;m;1.0;m;1.4537319999999454;2.0;1.0;decision;25.0;35.0;45.0;55.0;70.0;700.0;1.9;2.0
sub-004;p4;m4;;4.0;5500.0;stimuli/p4.png;stimuli/m4.png;right;m;1.0;m;0.8869556999998167;2.0;2.0;decision;25.0;35.0;45.0;55.0;70.0;700.0;1.8;4.0
sub-004;p2;m4;;2.0;3500.0;stimuli/m4.png;stimuli/p2.png;right;m;1.0;m;1.2348879999990459;2.0;3.0;decision;25.0;35.0;45.0;55.0;70.0;700.0;2.0;4.0
sub-004;p1;m1;;1.0;2500.0;stimuli/p1.png;stimuli/m1.png;right;m;1.0;m;0.7199658999998064;2.0;4.0;decision;25.0;35.0;45.0;55.0;70.0;700.0;1.5;1.0
sub-004;p3;m2;;3.0;4500.0;stimuli/m2.png;stimuli/p3.png;right;m;1.0;m;1.1163646000004521;2.0;5.0;decision;25.0;35.0;45.0;55.0;70.0;700.0;1.7;2.0
sub-004;p3;m1;;3.0;4500.0;stimuli/m1.png;stimuli/p3.png;right;m;1.0;m;1.8616320000001;2.0;6.0;decision;25.0;35.0;45.0;55.0;70.0;700.0;1.5;1.0
sub-004;p2;m1;;2.0;3500.0;stimuli/p2.png;stimuli/m1.png;right;m;1.0;m;0.8179599000013695;2.0;7.0;decision;25.0;35.0;45.0;55.0;70.0;700.0;1.7;1.0
sub-004;p4;m2;;4.0;5500.0;stimuli/p4.png;stimuli/m2.png;right;m;1.0;m;0.9662829999997484;2.0;8.0;decision;25.0;35.0;45.0;55.0;70.0;700.0;1.6;2.0
sub-004;p4;m3;;4.0;5500.0;stimuli/m3.png;stimuli/p4.png;right;m;1.0;m;0.8396953000010399;2.0;9.0;decision;25.0;35.0;45.0;55.0;70.0;700.0;1.5;3.0
sub-004;p3;m3;;3.0;4500.0;stimuli/p3.png;stimuli/m3.png;right;m;1.0;m;0.7637548000002425;2.0;10.0;decision;25.0;35.0;45.0;55.0;70.0;700.0;2.0;3.0
sub-004;p3;m4;;3.0;4500.0;stimuli/m4.png;stimuli/p3.png;right;m;1.0;m;0.701718799999071;2.0;11.0;decision;25.0;35.0;45.0;55.0;70.0;700.0;1.9;4.0
sub-004;p2;m5;;2.0;3500.0;stimuli/m5.png;stimuli/p2.png;right;m;1.0;m;0.8697874000008596;2.0;12.0;decision;25.0;35.0;45.0;55.0;70.0;700.0;1.9;5.0
sub-004;p1;m4;;1.0;2500.0;stimuli/p1.png;stimuli/m4.png;right;m;1.0;m;0.8923238000006677;2.0;13.0;decision;25.0;35.0;45.0;55.0;70.0;700.0;1.6;4.0
sub-004;p4;m5;;4.0;5500.0;stimuli/p4.png;stimuli/m5.png;right;m;1.0;m;0.8318704000012076;2.0;14.0;decision;25.0;35.0;45.0;55.0;70.0;700.0;1.7;5.0
sub-004;p3;m5;;3.0;4500.0;stimuli/m5.png;stimuli/p3.png;right;m;1.0;m;0.9640250000011292;2.0;15.0;decision;25.0;35.0;45.0;55.0;70.0;700.0;1.6;5.0
sub-004;p2;m2;;2.0;3500.0;stimuli/p2.png;stimuli/m2.png;right;m;1.0;m;0.7032557999991695;2.0;16.0;decision;25.0;35.0;45.0;55.0;70.0;700.0;1.5;2.0
sub-004;p1;m5;;1.0;2500.0;stimuli/m5.png;stimuli/p1.png;right;m;1.0;m;0.7766066000003775;2.0;17.0;decision;25.0;35.0;45.0;55.0;70.0;700.0;1.8;5.0
sub-004;p5;m1;;5.0;7000.0;stimuli/m1.png;stimuli/p5.png;right;m;0.0;n;1.4687928000003012;2.0;18.0;decision;25.0;35.0;45.0;55.0;70.0;700.0;1.8;1.0
sub-004;p5;m4;;5.0;7000.0;stimuli/p5.png;stimuli/m4.png;right;m;1.0;m;1.5200383999999758;2.0;19.0;decision;25.0;35.0;45.0;55.0;70.0;700.0;1.5;4.0
sub-004;p1;m3;;1.0;2500.0;stimuli/m3.png;stimuli/p1.png;right;m;1.0;m;1.590893500000675;2.0;20.0;decision;25.0;35.0;45.0;55.0;70.0;700.0;1.8;3.0
sub-004;p5;m3;;5.0;7000.0;stimuli/p5.png;stimuli/m3.png;right;m;1.0;m;0.7925920000016049;2.0;21.0;decision;25.0;35.0;45.0;55.0;70.0;700.0;1.6;3.0
sub-004;p5;m5;;5.0;7000.0;stimuli/m5.png;stimuli/p5.png;right;m;1.0;m;0.8050062000020262;2.0;22.0;decision;25.0;35.0;45.0;55.0;70.0;700.0;1.9;5.0
sub-004;p2;m3;;2.0;3500.0;stimuli/p2.png;stimuli/m3.png;right;m;1.0;m;0.9266318000009052;2.0;23.0;decision;25.0;35.0;45.0;55.0;70.0;700.0;1.5;3.0
sub-004;p4;m1;;4.0;5500.0;stimuli/m1.png;stimuli/p4.png;right;m;0.0;n;1.0778509000010672;2.0;24.0;decision;25.0;35.0;45.0;55.0;70.0;700.0;2.0;1.0
sub-004;p4;m1;;4.0;5500.0;stimuli/m1.png;stimuli/p4.png;right;m;0.0;n;1.0994655000013154;3.0;0.0;decision;25.0;35.0;45.0;55.0;70.0;700.0;1.8;1.0
sub-004;p1;m2;;1.0;2500.0;stimuli/m2.png;stimuli/p1.png;right;m;1.0;m;1.344378300000244;3.0;1.0;decision;25.0;35.0;45.0;55.0;70.0;700.0;1.8;2.0
sub-004;p2;m4;;2.0;3500.0;stimuli/p2.png;stimuli/m4.png;right;m;1.0;m;0.8254916000005323;3.0;2.0;decision;25.0;35.0;45.0;55.0;70.0;700.0;1.6;4.0
sub-004;p4;m3;;4.0;5500.0;stimuli/p4.png;stimuli/m3.png;right;m;1.0;m;1.112839300001724;3.0;3.0;decision;25.0;35.0;45.0;55.0;70.0;700.0;1.7;3.0
sub-004;p1;m1;;1.0;2500.0;stimuli/p1.png;stimuli/m1.png;right;m;1.0;m;1.1012563999993292;3.0;4.0;decision;25.0;35.0;45.0;55.0;70.0;700.0;1.6;1.0
sub-004;p4;m2;;4.0;5500.0;stimuli/m2.png;stimuli/p4.png;right;m;1.0;m;1.3919172000005346;3.0;5.0;decision;25.0;35.0;45.0;55.0;70.0;700.0;1.8;2.0
sub-004;p5;m3;;5.0;7000.0;stimuli/p5.png;stimuli/m3.png;right;m;1.0;m;1.4798410000003057;3.0;6.0;decision;25.0;35.0;45.0;55.0;70.0;700.0;1.5;3.0
sub-004;p3;m3;;3.0;4500.0;stimuli/p3.png;stimuli/m3.png;right;m;1.0;m;0.7183413000002474;3.0;7.0;decision;25.0;35.0;45.0;55.0;70.0;700.0;1.6;3.0
sub-004;p2;m5;;2.0;3500.0;stimuli/p2.png;stimuli/m5.png;right;m;1.0;m;0.8080188000003545;3.0;8.0;decision;25.0;35.0;45.0;55.0;70.0;700.0;1.6;5.0
sub-004;p4;m5;;4.0;5500.0;stimuli/p4.png;stimuli/m5.png;right;m;1.0;m;0.8542166000006546;3.0;9.0;decision;25.0;35.0;45.0;55.0;70.0;700.0;2.0;5.0
sub-004;p1;m3;;1.0;2500.0;stimuli/m3.png;stimuli/p1.png;right;m;1.0;m;1.6944997999999032;3.0;10.0;decision;25.0;35.0;45.0;55.0;70.0;700.0;1.6;3.0
sub-004;p3;m5;;3.0;4500.0;stimuli/p3.png;stimuli/m5.png;right;m;1.0;m;0.7997391999997491;3.0;11.0;decision;25.0;35.0;45.0;55.0;70.0;700.0;1.8;5.0
sub-004;p5;m5;;5.0;7000.0;stimuli/p5.png;stimuli/m5.png;right;m;1.0;m;0.9008131000009598;3.0;12.0;decision;25.0;35.0;45.0;55.0;70.0;700.0;1.7;5.0
sub-004;p3;m1;;3.0;4500.0;stimuli/p3.png;stimuli/m1.png;right;m;1.0;m;1.1075823000010132;3.0;13.0;decision;25.0;35.0;45.0;55.0;70.0;700.0;1.5;1.0
sub-004;p1;m4;;1.0;2500.0;stimuli/m4.png;stimuli/p1.png;right;m;1.0;m;2.1517282000004343;3.0;14.0;decision;25.0;35.0;45.0;55.0;70.0;700.0;1.6;4.0
sub-004;p2;m1;;2.0;3500.0;stimuli/m1.png;stimuli/p2.png;right;m;1.0;m;2.3812605000002804;3.0;15.0;decision;25.0;35.0;45.0;55.0;70.0;700.0;1.9;1.0
sub-004;p4;m4;;4.0;5500.0;stimuli/p4.png;stimuli/m4.png;right;m;1.0;m;0.7127173000008042;3.0;16.0;decision;25.0;35.0;45.0;55.0;70.0;700.0;1.6;4.0
sub-004;p3;m4;;3.0;4500.0;stimuli/m4.png;stimuli/p3.png;right;m;1.0;m;0.8323108999993565;3.0;17.0;decision;25.0;35.0;45.0;55.0;70.0;700.0;1.7;4.0
sub-004;p3;m2;;3.0;4500.0;stimuli/m2.png;stimuli/p3.png;right;m;1.0;m;0.9435606000006374;3.0;18.0;decision;25.0;35.0;45.0;55.0;70.0;700.0;1.6;2.0
sub-004;p2;m3;;2.0;3500.0;stimuli/p2.png;stimuli/m3.png;right;m;1.0;m;1.2208445000014765;3.0;19.0;decision;25.0;35.0;45.0;55.0;70.0;700.0;2.0;3.0
sub-004;p5;m1;;5.0;7000.0;stimuli/p5.png;stimuli/m1.png;right;m;0.0;n;0.9373661000008724;3.0;20.0;decision;25.0;35.0;45.0;55.0;70.0;700.0;1.7;1.0
sub-004;p1;m5;;1.0;2500.0;stimuli/m5.png;stimuli/p1.png;right;m;1.0;m;0.8794386000008672;3.0;21.0;decision;25.0;35.0;45.0;55.0;70.0;700.0;1.9;5.0
sub-004;p5;m4;;5.0;7000.0;stimuli/m4.png;stimuli/p5.png;right;m;1.0;m;1.0720751000008022;3.0;22.0;decision;25.0;35.0;45.0;55.0;70.0;700.0;1.9;4.0
sub-004;p5;m2;;5.0;7000.0;stimuli/p5.png;stimuli/m2.png;right;m;0.0;n;1.5622108999996271;3.0;23.0;decision;25.0;35.0;45.0;55.0;70.0;700.0;1.6;2.0
sub-004;p2;m2;;2.0;3500.0;stimuli/p2.png;stimuli/m2.png;right;m;1.0;m;0.7205536000001302;3.0;24.0;decision;25.0;35.0;45.0;55.0;70.0;700.0;2.0;2.0
sub-004;p4;m5;;4.0;5500.0;stimuli/m5.png;stimuli/p4.png;right;m;1.0;m;0.8617221999993491;4.0;0.0;decision;25.0;35.0;45.0;55.0;70.0;700.0;1.6;5.0
sub-004;p5;m1;;5.0;7000.0;stimuli/p5.png;stimuli/m1.png;right;m;0.0;n;0.961552099999608;4.0;1.0;decision;25.0;35.0;45.0;55.0;70.0;700.0;2.0;1.0
sub-004;p1;m3;;1.0;2500.0;stimuli/m3.png;stimuli/p1.png;right;m;1.0;m;0.7835579999991751;4.0;2.0;decision;25.0;35.0;45.0;55.0;70.0;700.0;1.6;3.0
sub-004;p5;m2;;5.0;7000.0;stimuli/p5.png;stimuli/m2.png;right;m;1.0;m;1.1703144000002794;4.0;3.0;decision;25.0;35.0;45.0;55.0;70.0;700.0;1.8;2.0
sub-004;p2;m2;;2.0;3500.0;stimuli/m2.png;stimuli/p2.png;right;m;1.0;m;0.6177112000004854;4.0;4.0;decision;25.0;35.0;45.0;55.0;70.0;700.0;2.0;2.0
sub-004;p3;m3;;3.0;4500.0;stimuli/m3.png;stimuli/p3.png;right;m;1.0;m;0.5787405999999464;4.0;5.0;decision;25.0;35.0;45.0;55.0;70.0;700.0;1.6;3.0
sub-004;p4;m3;;4.0;5500.0;stimuli/m3.png;stimuli/p4.png;right;m;1.0;m;0.5420211000000563;4.0;6.0;decision;25.0;35.0;45.0;55.0;70.0;700.0;1.9;3.0
sub-004;p4;m2;;4.0;5500.0;stimuli/p4.png;stimuli/m2.png;right;m;1.0;m;1.5432638999991468;4.0;7.0;decision;25.0;35.0;45.0;55.0;70.0;700.0;1.8;2.0
sub-004;p1;m1;;1.0;2500.0;stimuli/p1.png;stimuli/m1.png;right;m;1.0;m;1.0703713000002608;4.0;8.0;decision;25.0;35.0;45.0;55.0;70.0;700.0;1.8;1.0
sub-004;p4;m1;;4.0;5500.0;stimuli/p4.png;stimuli/m1.png;right;m;1.0;m;1.5190334000017174;4.0;9.0;decision;25.0;35.0;45.0;55.0;70.0;700.0;1.6;1.0
sub-004;p5;m5;;5.0;7000.0;stimuli/p5.png;stimuli/m5.png;right;m;1.0;m;0.6247932000005676;4.0;10.0;decision;25.0;35.0;45.0;55.0;70.0;700.0;2.0;5.0
sub-004;p1;m2;;1.0;2500.0;stimuli/m2.png;stimuli/p1.png;right;m;1.0;m;0.6634063999990758;4.0;11.0;decision;25.0;35.0;45.0;55.0;70.0;700.0;1.8;2.0
sub-004;p3;m5;;3.0;4500.0;stimuli/m5.png;stimuli/p3.png;right;m;1.0;m;0.6698930999991717;4.0;12.0;decision;25.0;35.0;45.0;55.0;70.0;700.0;2.0;5.0
sub-004;p2;m3;;2.0;3500.0;stimuli/m3.png;stimuli/p2.png;right;m;1.0;m;0.6110571000008349;4.0;13.0;decision;25.0;35.0;45.0;55.0;70.0;700.0;1.8;3.0
sub-004;p2;m1;;2.0;3500.0;stimuli/m1.png;stimuli/p2.png;right;m;1.0;m;0.6602933000012854;4.0;14.0;decision;25.0;35.0;45.0;55.0;70.0;700.0;1.5;1.0
sub-004;p3;m2;;3.0;4500.0;stimuli/p3.png;stimuli/m2.png;right;m;1.0;m;1.150508599999739;4.0;15.0;decision;25.0;35.0;45.0;55.0;70.0;700.0;1.5;2.0
sub-004;p3;m4;;3.0;4500.0;stimuli/m4.png;stimuli/p3.png;right;m;1.0;m;0.6386720999998943;4.0;16.0;decision;25.0;35.0;45.0;55.0;70.0;700.0;1.5;4.0
sub-004;p2;m4;;2.0;3500.0;stimuli/m4.png;stimuli/p2.png;right;m;1.0;m;0.5917983000017557;4.0;17.0;decision;25.0;35.0;45.0;55.0;70.0;700.0;1.6;4.0
sub-004;p5;m4;;5.0;7000.0;stimuli/p5.png;stimuli/m4.png;right;m;1.0;m;0.975722000001042;4.0;18.0;decision;25.0;35.0;45.0;55.0;70.0;700.0;1.6;4.0
sub-004;p5;m3;;5.0;7000.0;stimuli/p5.png;stimuli/m3.png;right;m;1.0;m;0.6312127000019245;4.0;19.0;decision;25.0;35.0;45.0;55.0;70.0;700.0;1.5;3.0
sub-004;p2;m5;;2.0;3500.0;stimuli/p2.png;stimuli/m5.png;right;m;1.0;m;0.6552494000006845;4.0;20.0;decision;25.0;35.0;45.0;55.0;70.0;700.0;1.9;5.0
sub-004;p4;m4;;4.0;5500.0;stimuli/p4.png;stimuli/m4.png;right;m;1.0;m;1.0800895000011224;4.0;21.0;decision;25.0;35.0;45.0;55.0;70.0;700.0;1.5;4.0
sub-004;p3;m1;;3.0;4500.0;stimuli/m1.png;stimuli/p3.png;right;m;1.0;m;0.5420980000017153;4.0;22.0;decision;25.0;35.0;45.0;55.0;70.0;700.0;1.7;1.0
sub-004;p1;m5;;1.0;2500.0;stimuli/m5.png;stimuli/p1.png;right;m;1.0;m;0.9723740000008548;4.0;23.0;decision;25.0;35.0;45.0;55.0;70.0;700.0;1.7;5.0
sub-004;p1;m4;;1.0;2500.0;stimuli/p1.png;stimuli/m4.png;right;m;1.0;m;0.9975655000016558;4.0;24.0;decision;25.0;35.0;45.0;55.0;70.0;700.0;1.5;4.0
sub-005;p3;m5;;3.0;9000.0;stimuli/m5.png;stimuli/p3.png;left;n;0.0;;;0.0;0.0;decision;40.0;65.0;90.0;120.0;140.0;700.0;1.6;5.0
sub-005;p5;m4;;5.0;14000.0;stimuli/m4.png;stimuli/p5.png;left;n;1.0;n;1.533468300000095;0.0;1.0;decision;40.0;65.0;90.0;120.0;140.0;700.0;1.8;4.0
sub-005;p1;m3;;1.0;4000.0;stimuli/p1.png;stimuli/m3.png;left;n;1.0;n;1.1997004999998353;0.0;2.0;decision;40.0;65.0;90.0;120.0;140.0;700.0;1.8;3.0
sub-005;p3;m1;;3.0;9000.0;stimuli/m1.png;stimuli/p3.png;left;n;1.0;n;1.5580775000003086;0.0;3.0;decision;40.0;65.0;90.0;120.0;140.0;700.0;1.5;1.0
sub-005;p2;m2;;2.0;6500.0;stimuli/p2.png;stimuli/m2.png;left;n;1.0;n;0.8790870000002542;0.0;4.0;decision;40.0;65.0;90.0;120.0;140.0;700.0;1.9;2.0
sub-005;p4;m3;;4.0;12000.0;stimuli/m3.png;stimuli/p4.png;left;n;1.0;n;0.5330170000001999;0.0;5.0;decision;40.0;65.0;90.0;120.0;140.0;700.0;1.5;3.0
sub-005;p3;m3;;3.0;9000.0;stimuli/m3.png;stimuli/p3.png;left;n;1.0;n;0.8619360000002416;0.0;6.0;decision;40.0;65.0;90.0;120.0;140.0;700.0;1.6;3.0
sub-005;p2;m4;;2.0;6500.0;stimuli/p2.png;stimuli/m4.png;left;n;1.0;n;0.9087905000001228;0.0;7.0;decision;40.0;65.0;90.0;120.0;140.0;700.0;1.5;4.0
sub-005;p3;m2;;3.0;9000.0;stimuli/p3.png;stimuli/m2.png;left;n;0.0;m;1.8240333000003373;0.0;8.0;decision;40.0;65.0;90.0;120.0;140.0;700.0;1.9;2.0
sub-005;p5;m5;;5.0;14000.0;stimuli/m5.png;stimuli/p5.png;left;n;1.0;n;0.7039374999999382;0.0;9.0;decision;40.0;65.0;90.0;120.0;140.0;700.0;1.7;5.0
sub-005;p3;m4;;3.0;9000.0;stimuli/p3.png;stimuli/m4.png;left;n;1.0;n;1.0520435999997062;0.0;10.0;decision;40.0;65.0;90.0;120.0;140.0;700.0;1.6;4.0
sub-005;p4;m2;;4.0;12000.0;stimuli/m2.png;stimuli/p4.png;left;n;0.0;m;1.1644438000002992;0.0;11.0;decision;40.0;65.0;90.0;120.0;140.0;700.0;1.5;2.0
sub-005;p1;m4;;1.0;4000.0;stimuli/m4.png;stimuli/p1.png;left;n;1.0;n;0.9083886999997048;0.0;12.0;decision;40.0;65.0;90.0;120.0;140.0;700.0;1.9;4.0
sub-005;p5;m3;;5.0;14000.0;stimuli/p5.png;stimuli/m3.png;left;n;0.0;m;1.5421784000000116;0.0;13.0;decision;40.0;65.0;90.0;120.0;140.0;700.0;1.8;3.0
sub-005;p5;m1;;5.0;14000.0;stimuli/m1.png;stimuli/p5.png;left;n;0.0;m;1.198796399999992;0.0;14.0;decision;40.0;65.0;90.0;120.0;140.0;700.0;1.6;1.0
sub-005;p4;m1;;4.0;12000.0;stimuli/m1.png;stimuli/p4.png;left;n;0.0;m;1.740892299999814;0.0;15.0;decision;40.0;65.0;90.0;120.0;140.0;700.0;1.8;1.0
sub-005;p4;m4;;4.0;12000.0;stimuli/m4.png;stimuli/p4.png;left;n;1.0;n;0.7076453999998193;0.0;16.0;decision;40.0;65.0;90.0;120.0;140.0;700.0;1.6;4.0
sub-005;p4;m5;;4.0;12000.0;stimuli/p4.png;stimuli/m5.png;left;n;1.0;n;1.010178100000303;0.0;17.0;decision;40.0;65.0;90.0;120.0;140.0;700.0;1.5;5.0
sub-005;p1;m2;;1.0;4000.0;stimuli/m2.png;stimuli/p1.png;left;n;1.0;n;0.8323287000002892;0.0;18.0;decision;40.0;65.0;90.0;120.0;140.0;700.0;1.8;2.0
sub-005;p1;m5;;1.0;4000.0;stimuli/m5.png;stimuli/p1.png;left;n;1.0;n;0.6956886999996641;0.0;19.0;decision;40.0;65.0;90.0;120.0;140.0;700.0;2.0;5.0
sub-005;p2;m3;;2.0;6500.0;stimuli/p2.png;stimuli/m3.png;left;n;1.0;n;1.69208080000044;0.0;20.0;decision;40.0;65.0;90.0;120.0;140.0;700.0;1.8;3.0
sub-005;p2;m1;;2.0;6500.0;stimuli/p2.png;stimuli/m1.png;left;n;1.0;n;2.334359200000108;0.0;21.0;decision;40.0;65.0;90.0;120.0;140.0;700.0;1.6;1.0
sub-005;p5;m2;;5.0;14000.0;stimuli/m2.png;stimuli/p5.png;left;n;0.0;m;1.0990621000000829;0.0;22.0;decision;40.0;65.0;90.0;120.0;140.0;700.0;1.8;2.0
sub-005;p2;m5;;2.0;6500.0;stimuli/p2.png;stimuli/m5.png;left;n;1.0;n;1.6999884000001655;0.0;23.0;decision;40.0;65.0;90.0;120.0;140.0;700.0;2.0;5.0
sub-005;p1;m1;;1.0;4000.0;stimuli/p1.png;stimuli/m1.png;left;n;1.0;n;1.2164960000000065;0.0;24.0;decision;40.0;65.0;90.0;120.0;140.0;700.0;1.6;1.0
sub-005;p4;m4;;4.0;12000.0;stimuli/p4.png;stimuli/m4.png;left;n;1.0;n;1.366028599999936;1.0;0.0;decision;40.0;65.0;90.0;120.0;140.0;700.0;1.7;4.0
sub-005;p2;m5;;2.0;6500.0;stimuli/p2.png;stimuli/m5.png;left;n;1.0;n;1.0291784999999436;1.0;1.0;decision;40.0;65.0;90.0;120.0;140.0;700.0;1.8;5.0
sub-005;p3;m1;;3.0;9000.0;stimuli/m1.png;stimuli/p3.png;left;n;0.0;m;1.4079240000000937;1.0;2.0;decision;40.0;65.0;90.0;120.0;140.0;700.0;1.5;1.0
sub-005;p5;m5;;5.0;14000.0;stimuli/p5.png;stimuli/m5.png;left;n;1.0;n;1.3048718000000008;1.0;3.0;decision;40.0;65.0;90.0;120.0;140.0;700.0;2.0;5.0
sub-005;p3;m3;;3.0;9000.0;stimuli/p3.png;stimuli/m3.png;left;n;1.0;n;0.8917903000001388;1.0;4.0;decision;40.0;65.0;90.0;120.0;140.0;700.0;1.6;3.0
sub-005;p5;m3;;5.0;14000.0;stimuli/m3.png;stimuli/p5.png;left;n;0.0;m;2.08380840000018;1.0;5.0;decision;40.0;65.0;90.0;120.0;140.0;700.0;1.6;3.0
sub-005;p5;m2;;5.0;14000.0;stimuli/p5.png;stimuli/m2.png;left;n;0.0;m;1.8941588999996384;1.0;6.0;decision;40.0;65.0;90.0;120.0;140.0;700.0;1.7;2.0
sub-005;p4;m5;;4.0;12000.0;stimuli/p4.png;stimuli/m5.png;left;n;1.0;n;0.9724946999999702;1.0;7.0;decision;40.0;65.0;90.0;120.0;140.0;700.0;1.9;5.0
sub-005;p3;m4;;3.0;9000.0;stimuli/m4.png;stimuli/p3.png;left;n;1.0;n;1.3536855000002106;1.0;8.0;decision;40.0;65.0;90.0;120.0;140.0;700.0;1.9;4.0
sub-005;p3;m2;;3.0;9000.0;stimuli/p3.png;stimuli/m2.png;left;n;1.0;n;2.311088899999959;1.0;9.0;decision;40.0;65.0;90.0;120.0;140.0;700.0;1.9;2.0
sub-005;p3;m5;;3.0;9000.0;stimuli/p3.png;stimuli/m5.png;left;n;1.0;n;0.7434337999998206;1.0;10.0;decision;40.0;65.0;90.0;120.0;140.0;700.0;1.9;5.0
sub-005;p2;m4;;2.0;6500.0;stimuli/p2.png;stimuli/m4.png;left;n;1.0;n;1.114860900000167;1.0;11.0;decision;40.0;65.0;90.0;120.0;140.0;700.0;1.9;4.0
sub-005;p1;m5;;1.0;4000.0;stimuli/m5.png;stimuli/p1.png;left;n;1.0;n;0.6243192000001727;1.0;12.0;decision;40.0;65.0;90.0;120.0;140.0;700.0;1.8;5.0
sub-005;p1;m1;;1.0;4000.0;stimuli/m1.png;stimuli/p1.png;left;n;1.0;n;0.6935783999997511;1.0;13.0;decision;40.0;65.0;90.0;120.0;140.0;700.0;1.9;1.0
sub-005;p5;m1;;5.0;14000.0;stimuli/m1.png;stimuli/p5.png;left;n;0.0;m;0.7985733000000437;1.0;14.0;decision;40.0;65.0;90.0;120.0;140.0;700.0;2.0;1.0
sub-005;p1;m3;;1.0;4000.0;stimuli/m3.png;stimuli/p1.png;left;n;1.0;n;1.2087968000000728;1.0;15.0;decision;40.0;65.0;90.0;120.0;140.0;700.0;1.6;3.0
sub-005;p4;m2;;4.0;12000.0;stimuli/m2.png;stimuli/p4.png;left;n;0.0;m;1.8774561000000176;1.0;16.0;decision;40.0;65.0;90.0;120.0;140.0;700.0;1.9;2.0
sub-005;p4;m3;;4.0;12000.0;stimuli/p4.png;stimuli/m3.png;left;n;1.0;n;2.6861927999998443;1.0;17.0;decision;40.0;65.0;90.0;120.0;140.0;700.0;1.9;3.0
sub-005;p2;m1;;2.0;6500.0;stimuli/m1.png;stimuli/p2.png;left;n;0.0;m;2.2913367999999537;1.0;18.0;decision;40.0;65.0;90.0;120.0;140.0;700.0;1.5;1.0
sub-005;p1;m4;;1.0;4000.0;stimuli/p1.png;stimuli/m4.png;left;n;1.0;n;1.3267820000000938;1.0;19.0;decision;40.0;65.0;90.0;120.0;140.0;700.0;1.7;4.0
sub-005;p5;m4;;5.0;14000.0;stimuli/p5.png;stimuli/m4.png;left;n;0.0;m;1.3851924000000508;1.0;20.0;decision;40.0;65.0;90.0;120.0;140.0;700.0;1.9;4.0
sub-005;p4;m1;;4.0;12000.0;stimuli/p4.png;stimuli/m1.png;left;n;0.0;m;1.2080307999999604;1.0;21.0;decision;40.0;65.0;90.0;120.0;140.0;700.0;1.6;1.0
sub-005;p2;m2;;2.0;6500.0;stimuli/p2.png;stimuli/m2.png;left;n;1.0;n;1.0585567999996783;1.0;22.0;decision;40.0;65.0;90.0;120.0;140.0;700.0;1.5;2.0
sub-005;p1;m2;;1.0;4000.0;stimuli/m2.png;stimuli/p1.png;left;n;1.0;n;1.1178500999999414;1.0;23.0;decision;40.0;65.0;90.0;120.0;140.0;700.0;1.7;2.0
sub-005;p2;m3;;2.0;6500.0;stimuli/m3.png;stimuli/p2.png;left;n;1.0;n;0.6731516000004376;1.0;24.0;decision;40.0;65.0;90.0;120.0;140.0;700.0;1.8;3.0
sub-005;p1;m1;;1.0;4000.0;stimuli/p1.png;stimuli/m1.png;left;n;1.0;n;0.8019987999996374;2.0;0.0;decision;40.0;65.0;90.0;120.0;140.0;700.0;1.9;1.0
sub-005;p5;m2;;5.0;14000.0;stimuli/p5.png;stimuli/m2.png;left;n;0.0;m;0.8276092999999491;2.0;1.0;decision;40.0;65.0;90.0;120.0;140.0;700.0;1.5;2.0
sub-005;p1;m4;;1.0;4000.0;stimuli/m4.png;stimuli/p1.png;left;n;1.0;n;0.6054166999997506;2.0;2.0;decision;40.0;65.0;90.0;120.0;140.0;700.0;1.5;4.0
sub-005;p2;m2;;2.0;6500.0;stimuli/p2.png;stimuli/m2.png;left;n;1.0;n;0.7078838000002179;2.0;3.0;decision;40.0;65.0;90.0;120.0;140.0;700.0;1.8;2.0
sub-005;p3;m4;;3.0;9000.0;stimuli/p3.png;stimuli/m4.png;left;n;1.0;n;1.0182971000003818;2.0;4.0;decision;40.0;65.0;90.0;120.0;140.0;700.0;1.9;4.0
sub-005;p2;m5;;2.0;6500.0;stimuli/p2.png;stimuli/m5.png;left;n;1.0;n;1.0687361999998757;2.0;5.0;decision;40.0;65.0;90.0;120.0;140.0;700.0;1.5;5.0
sub-005;p4;m5;;4.0;12000.0;stimuli/m5.png;stimuli/p4.png;left;n;1.0;n;1.1656035999999403;2.0;6.0;decision;40.0;65.0;90.0;120.0;140.0;700.0;1.8;5.0
sub-005;p4;m1;;4.0;12000.0;stimuli/m1.png;stimuli/p4.png;left;n;0.0;m;1.7912756000000627;2.0;7.0;decision;40.0;65.0;90.0;120.0;140.0;700.0;1.5;1.0
sub-005;p1;m5;;1.0;4000.0;stimuli/p1.png;stimuli/m5.png;left;n;1.0;n;1.0723440000001574;2.0;8.0;decision;40.0;65.0;90.0;120.0;140.0;700.0;1.8;5.0
sub-005;p3;m2;;3.0;9000.0;stimuli/m2.png;stimuli/p3.png;left;n;1.0;n;1.672677499999736;2.0;9.0;decision;40.0;65.0;90.0;120.0;140.0;700.0;1.6;2.0
sub-005;p5;m4;;5.0;14000.0;stimuli/p5.png;stimuli/m4.png;left;n;1.0;n;1.3895526999999674;2.0;10.0;decision;40.0;65.0;90.0;120.0;140.0;700.0;1.6;4.0
sub-005;p5;m5;;5.0;14000.0;stimuli/m5.png;stimuli/p5.png;left;n;1.0;n;1.1670635999998922;2.0;11.0;decision;40.0;65.0;90.0;120.0;140.0;700.0;1.7;5.0
sub-005;p5;m1;;5.0;14000.0;stimuli/m1.png;stimuli/p5.png;left;n;0.0;m;1.223141399999804;2.0;12.0;decision;40.0;65.0;90.0;120.0;140.0;700.0;1.9;1.0
sub-005;p2;m1;;2.0;6500.0;stimuli/m1.png;stimuli/p2.png;left;n;1.0;n;1.8947787000001883;2.0;13.0;decision;40.0;65.0;90.0;120.0;140.0;700.0;1.9;1.0
sub-005;p2;m3;;2.0;6500.0;stimuli/p2.png;stimuli/m3.png;left;n;1.0;n;1.1869474000000082;2.0;14.0;decision;40.0;65.0;90.0;120.0;140.0;700.0;1.9;3.0
sub-005;p4;m3;;4.0;12000.0;stimuli/m3.png;stimuli/p4.png;left;n;0.0;m;2.320025099999839;2.0;15.0;decision;40.0;65.0;90.0;120.0;140.0;700.0;1.5;3.0
sub-005;p2;m4;;2.0;6500.0;stimuli/p2.png;stimuli/m4.png;left;n;1.0;n;0.9107564999999341;2.0;16.0;decision;40.0;65.0;90.0;120.0;140.0;700.0;1.5;4.0
sub-005;p5;m3;;5.0;14000.0;stimuli/m3.png;stimuli/p5.png;left;n;0.0;;;2.0;17.0;decision;40.0;65.0;90.0;120.0;140.0;700.0;1.8;3.0
sub-005;p1;m3;;1.0;4000.0;stimuli/m3.png;stimuli/p1.png;left;n;1.0;n;1.1004221999996844;2.0;18.0;decision;40.0;65.0;90.0;120.0;140.0;700.0;1.9;3.0
sub-005;p4;m4;;4.0;12000.0;stimuli/m4.png;stimuli/p4.png;left;n;1.0;n;0.7074317999999948;2.0;19.0;decision;40.0;65.0;90.0;120.0;140.0;700.0;1.8;4.0
sub-005;p3;m5;;3.0;9000.0;stimuli/p3.png;stimuli/m5.png;left;n;1.0;n;0.9933833999998568;2.0;20.0;decision;40.0;65.0;90.0;120.0;140.0;700.0;1.7;5.0
sub-005;p1;m2;;1.0;4000.0;stimuli/p1.png;stimuli/m2.png;left;n;1.0;n;1.0981958000002123;2.0;21.0;decision;40.0;65.0;90.0;120.0;140.0;700.0;1.6;2.0
sub-005;p4;m2;;4.0;12000.0;stimuli/p4.png;stimuli/m2.png;left;n;0.0;m;1.4998484000002463;2.0;22.0;decision;40.0;65.0;90.0;120.0;140.0;700.0;2.0;2.0
sub-005;p3;m1;;3.0;9000.0;stimuli/p3.png;stimuli/m1.png;left;n;0.0;m;1.5813438000000133;2.0;23.0;decision;40.0;65.0;90.0;120.0;140.0;700.0;1.9;1.0
sub-005;p3;m3;;3.0;9000.0;stimuli/p3.png;stimuli/m3.png;left;n;1.0;n;0.733887699999741;2.0;24.0;decision;40.0;65.0;90.0;120.0;140.0;700.0;2.0;3.0
sub-005;p4;m2;;4.0;12000.0;stimuli/m2.png;stimuli/p4.png;left;n;0.0;m;2.3523025999998017;3.0;0.0;decision;40.0;65.0;90.0;120.0;140.0;700.0;1.6;2.0
sub-005;p2;m3;;2.0;6500.0;stimuli/p2.png;stimuli/m3.png;left;n;1.0;n;2.243234499999744;3.0;1.0;decision;40.0;65.0;90.0;120.0;140.0;700.0;1.7;3.0
sub-005;p3;m2;;3.0;9000.0;stimuli/m2.png;stimuli/p3.png;left;n;1.0;n;2.5006600000001526;3.0;2.0;decision;40.0;65.0;90.0;120.0;140.0;700.0;1.6;2.0
sub-005;p5;m2;;5.0;14000.0;stimuli/p5.png;stimuli/m2.png;left;n;0.0;m;0.8427525000001879;3.0;3.0;decision;40.0;65.0;90.0;120.0;140.0;700.0;1.9;2.0
sub-005;p2;m2;;2.0;6500.0;stimuli/m2.png;stimuli/p2.png;left;n;1.0;n;0.6786635999997088;3.0;4.0;decision;40.0;65.0;90.0;120.0;140.0;700.0;1.5;2.0
sub-005;p5;m4;;5.0;14000.0;stimuli/p5.png;stimuli/m4.png;left;n;1.0;n;0.9915873999998441;3.0;5.0;decision;40.0;65.0;90.0;120.0;140.0;700.0;1.8;4.0
sub-005;p1;m4;;1.0;4000.0;stimuli/m4.png;stimuli/p1.png;left;n;1.0;n;0.8895024000003104;3.0;6.0;decision;40.0;65.0;90.0;120.0;140.0;700.0;1.8;4.0
sub-005;p1;m5;;1.0;4000.0;stimuli/p1.png;stimuli/m5.png;left;n;1.0;n;0.8136054999999942;3.0;7.0;decision;40.0;65.0;90.0;120.0;140.0;700.0;2.0;5.0
sub-005;p2;m4;;2.0;6500.0;stimuli/m4.png;stimuli/p2.png;left;n;1.0;n;0.5660965000001852;3.0;8.0;decision;40.0;65.0;90.0;120.0;140.0;700.0;1.7;4.0
sub-005;p5;m5;;5.0;14000.0;stimuli/p5.png;stimuli/m5.png;left;n;1.0;n;1.1462354999998752;3.0;9.0;decision;40.0;65.0;90.0;120.0;140.0;700.0;1.9;5.0
sub-005;p1;m2;;1.0;4000.0;stimuli/m2.png;stimuli/p1.png;left;n;1.0;n;0.8025913999999829;3.0;10.0;decision;40.0;65.0;90.0;120.0;140.0;700.0;2.0;2.0
sub-005;p1;m3;;1.0;4000.0;stimuli/p1.png;stimuli/m3.png;left;n;1.0;n;0.8291558999999324;3.0;11.0;decision;40.0;65.0;90.0;120.0;140.0;700.0;2.0;3.0
sub-005;p3;m3;;3.0;9000.0;stimuli/m3.png;stimuli/p3.png;left;n;1.0;n;0.6165158999997402;3.0;12.0;decision;40.0;65.0;90.0;120.0;140.0;700.0;1.6;3.0
sub-005;p3;m5;;3.0;9000.0;stimuli/p3.png;stimuli/m5.png;left;n;1.0;n;0.7572328000001107;3.0;13.0;decision;40.0;65.0;90.0;120.0;140.0;700.0;1.5;5.0
sub-005;p2;m5;;2.0;6500.0;stimuli/p2.png;stimuli/m5.png;left;n;1.0;n;0.6269595000003392;3.0;14.0;decision;40.0;65.0;90.0;120.0;140.0;700.0;1.8;5.0
sub-005;p5;m3;;5.0;14000.0;stimuli/p5.png;stimuli/m3.png;left;n;1.0;n;1.6784891999996034;3.0;15.0;decision;40.0;65.0;90.0;120.0;140.0;700.0;1.5;3.0
sub-005;p3;m1;;3.0;9000.0;stimuli/m1.png;stimuli/p3.png;left;n;0.0;m;0.843529999999646;3.0;16.0;decision;40.0;65.0;90.0;120.0;140.0;700.0;1.6;1.0
sub-005;p4;m5;;4.0;12000.0;stimuli/p4.png;stimuli/m5.png;left;n;1.0;n;0.9497102000000268;3.0;17.0;decision;40.0;65.0;90.0;120.0;140.0;700.0;1.5;5.0
sub-005;p4;m1;;4.0;12000.0;stimuli/p4.png;stimuli/m1.png;left;n;0.0;m;1.4192750999995951;3.0;18.0;decision;40.0;65.0;90.0;120.0;140.0;700.0;1.8;1.0
sub-005;p4;m3;;4.0;12000.0;stimuli/p4.png;stimuli/m3.png;left;n;0.0;m;1.5288073999995504;3.0;19.0;decision;40.0;65.0;90.0;120.0;140.0;700.0;1.7;3.0
sub-005;p3;m4;;3.0;9000.0;stimuli/m4.png;stimuli/p3.png;left;n;1.0;n;0.6184221999997135;3.0;20.0;decision;40.0;65.0;90.0;120.0;140.0;700.0;1.5;4.0
sub-005;p5;m1;;5.0;14000.0;stimuli/p5.png;stimuli/m1.png;left;n;0.0;m;0.9355369999998402;3.0;21.0;decision;40.0;65.0;90.0;120.0;140.0;700.0;1.8;1.0
sub-005;p4;m4;;4.0;12000.0;stimuli/m4.png;stimuli/p4.png;left;n;1.0;n;1.4888708000003137;3.0;22.0;decision;40.0;65.0;90.0;120.0;140.0;700.0;1.6;4.0
sub-005;p2;m1;;2.0;6500.0;stimuli/m1.png;stimuli/p2.png;left;n;1.0;n;1.5153913999997712;3.0;23.0;decision;40.0;65.0;90.0;120.0;140.0;700.0;1.6;1.0
sub-005;p1;m1;;1.0;4000.0;stimuli/p1.png;stimuli/m1.png;left;n;1.0;n;0.7477994000005309;3.0;24.0;decision;40.0;65.0;90.0;120.0;140.0;700.0;1.5;1.0
sub-005;p1;m4;;1.0;4000.0;stimuli/m4.png;stimuli/p1.png;left;n;1.0;n;0.8687715000000935;4.0;0.0;decision;40.0;65.0;90.0;120.0;140.0;700.0;1.8;4.0
sub-005;p2;m2;;2.0;6500.0;stimuli/p2.png;stimuli/m2.png;left;n;1.0;n;0.6275479999999334;4.0;1.0;decision;40.0;65.0;90.0;120.0;140.0;700.0;1.6;2.0
sub-005;p4;m5;;4.0;12000.0;stimuli/m5.png;stimuli/p4.png;left;n;1.0;n;0.9717021999999816;4.0;2.0;decision;40.0;65.0;90.0;120.0;140.0;700.0;1.7;5.0
sub-005;p5;m2;;5.0;14000.0;stimuli/m2.png;stimuli/p5.png;left;n;0.0;m;0.9824934999992364;4.0;3.0;decision;40.0;65.0;90.0;120.0;140.0;700.0;1.6;2.0
sub-005;p1;m1;;1.0;4000.0;stimuli/m1.png;stimuli/p1.png;left;n;1.0;n;0.8431088000002092;4.0;4.0;decision;40.0;65.0;90.0;120.0;140.0;700.0;1.9;1.0
sub-005;p1;m2;;1.0;4000.0;stimuli/p1.png;stimuli/m2.png;left;n;1.0;n;1.3664086999992833;4.0;5.0;decision;40.0;65.0;90.0;120.0;140.0;700.0;1.6;2.0
sub-005;p1;m3;;1.0;4000.0;stimuli/p1.png;stimuli/m3.png;left;n;1.0;n;0.5520341999995253;4.0;6.0;decision;40.0;65.0;90.0;120.0;140.0;700.0;1.5;3.0
sub-005;p3;m5;;3.0;9000.0;stimuli/p3.png;stimuli/m5.png;left;n;1.0;n;0.8332624999998188;4.0;7.0;decision;40.0;65.0;90.0;120.0;140.0;700.0;1.6;5.0
sub-005;p2;m4;;2.0;6500.0;stimuli/p2.png;stimuli/m4.png;left;n;1.0;n;0.5453213000005235;4.0;8.0;decision;40.0;65.0;90.0;120.0;140.0;700.0;1.9;4.0
sub-005;p5;m4;;5.0;14000.0;stimuli/p5.png;stimuli/m4.png;left;n;1.0;n;1.0874199999993834;4.0;9.0;decision;40.0;65.0;90.0;120.0;140.0;700.0;1.9;4.0
sub-005;p4;m4;;4.0;12000.0;stimuli/p4.png;stimuli/m4.png;left;n;1.0;n;0.8742598000003454;4.0;10.0;decision;40.0;65.0;90.0;120.0;140.0;700.0;1.7;4.0
sub-005;p5;m3;;5.0;14000.0;stimuli/p5.png;stimuli/m3.png;left;n;1.0;n;1.7140434999996614;4.0;11.0;decision;40.0;65.0;90.0;120.0;140.0;700.0;1.9;3.0
sub-005;p2;m5;;2.0;6500.0;stimuli/m5.png;stimuli/p2.png;left;n;1.0;n;0.8233844999999747;4.0;12.0;decision;40.0;65.0;90.0;120.0;140.0;700.0;2.0;5.0
sub-005;p3;m4;;3.0;9000.0;stimuli/m4.png;stimuli/p3.png;left;n;1.0;n;0.960418899999695;4.0;13.0;decision;40.0;65.0;90.0;120.0;140.0;700.0;1.5;4.0
sub-005;p3;m1;;3.0;9000.0;stimuli/p3.png;stimuli/m1.png;left;n;1.0;n;0.5789074999997865;4.0;14.0;decision;40.0;65.0;90.0;120.0;140.0;700.0;1.6;1.0
sub-005;p2;m1;;2.0;6500.0;stimuli/p2.png;stimuli/m1.png;left;n;0.0;m;2.2009135000002966;4.0;15.0;decision;40.0;65.0;90.0;120.0;140.0;700.0;2.0;1.0
sub-005;p2;m3;;2.0;6500.0;stimuli/p2.png;stimuli/m3.png;left;n;1.0;n;0.9353753000000324;4.0;16.0;decision;40.0;65.0;90.0;120.0;140.0;700.0;2.0;3.0
sub-005;p1;m5;;1.0;4000.0;stimuli/p1.png;stimuli/m5.png;left;n;1.0;n;0.7613587000000734;4.0;17.0;decision;40.0;65.0;90.0;120.0;140.0;700.0;1.9;5.0
sub-005;p4;m3;;4.0;12000.0;stimuli/p4.png;stimuli/m3.png;left;n;1.0;n;1.5895477999997638;4.0;18.0;decision;40.0;65.0;90.0;120.0;140.0;700.0;1.7;3.0
sub-005;p3;m2;;3.0;9000.0;stimuli/p3.png;stimuli/m2.png;left;n;1.0;n;0.9322314000005464;4.0;19.0;decision;40.0;65.0;90.0;120.0;140.0;700.0;1.6;2.0
sub-005;p4;m2;;4.0;12000.0;stimuli/m2.png;stimuli/p4.png;left;n;0.0;m;0.9371029999997518;4.0;20.0;decision;40.0;65.0;90.0;120.0;140.0;700.0;1.5;2.0
sub-005;p3;m3;;3.0;9000.0;stimuli/p3.png;stimuli/m3.png;left;n;1.0;n;1.1905306000003293;4.0;21.0;decision;40.0;65.0;90.0;120.0;140.0;700.0;2.0;3.0
sub-005;p4;m1;;4.0;12000.0;stimuli/m1.png;stimuli/p4.png;left;n;0.0;m;1.078072599999814;4.0;22.0;decision;40.0;65.0;90.0;120.0;140.0;700.0;1.5;1.0
sub-005;p5;m5;;5.0;14000.0;stimuli/p5.png;stimuli/m5.png;left;n;1.0;n;0.9862771000002796;4.0;23.0;decision;40.0;65.0;90.0;120.0;140.0;700.0;2.0;5.0
sub-005;p5;m1;;5.0;14000.0;stimuli/m1.png;stimuli/p5.png;left;n;0.0;m;1.1828898999997364;4.0;24.0;decision;40.0;65.0;90.0;120.0;140.0;700.0;1.9;1.0
sub-006;p3;m4;;3.0;7500.0;stimuli/m4.png;stimuli/p3.png;right;m;0.0;;;0.0;0.0;decision;50.0;65.0;75.0;90.0;100.0;700.0;1.6;4.0
sub-006;p1;m5;;1.0;5000.0;stimuli/p1.png;stimuli/m5.png;right;m;1.0;m;2.5783615999971516;0.0;1.0;decision;50.0;65.0;75.0;90.0;100.0;700.0;1.8;5.0
sub-006;p5;m4;;5.0;10000.0;stimuli/p5.png;stimuli/m4.png;right;m;1.0;m;2.1878061999886995;0.0;2.0;decision;50.0;65.0;75.0;90.0;100.0;700.0;1.8;4.0
sub-006;p3;m2;;3.0;7500.0;stimuli/m2.png;stimuli/p3.png;right;m;1.0;m;1.9176652000023748;0.0;3.0;decision;50.0;65.0;75.0;90.0;100.0;700.0;1.5;2.0
sub-006;p5;m3;;5.0;10000.0;stimuli/m3.png;stimuli/p5.png;right;m;0.0;n;2.5561102999927243;0.0;4.0;decision;50.0;65.0;75.0;90.0;100.0;700.0;1.5;3.0
sub-006;p5;m1;;5.0;10000.0;stimuli/m1.png;stimuli/p5.png;right;m;0.0;n;2.4711074000078947;0.0;5.0;decision;50.0;65.0;75.0;90.0;100.0;700.0;2.0;1.0
sub-006;p1;m1;;1.0;5000.0;stimuli/m1.png;stimuli/p1.png;right;m;1.0;m;1.2625406000006478;0.0;6.0;decision;50.0;65.0;75.0;90.0;100.0;700.0;1.5;1.0
sub-006;p4;m1;;4.0;9000.0;stimuli/p4.png;stimuli/m1.png;right;m;1.0;m;1.905998499991256;0.0;7.0;decision;50.0;65.0;75.0;90.0;100.0;700.0;1.6;1.0
sub-006;p3;m1;;3.0;7500.0;stimuli/p3.png;stimuli/m1.png;right;m;1.0;m;1.6182116999989375;0.0;8.0;decision;50.0;65.0;75.0;90.0;100.0;700.0;1.9;1.0
sub-006;p5;m5;;5.0;10000.0;stimuli/m5.png;stimuli/p5.png;right;m;1.0;m;1.4947635999997146;0.0;9.0;decision;50.0;65.0;75.0;90.0;100.0;700.0;1.7;5.0
sub-006;p1;m2;;1.0;5000.0;stimuli/m2.png;stimuli/p1.png;right;m;0.0;;;0.0;10.0;decision;50.0;65.0;75.0;90.0;100.0;700.0;1.5;2.0
sub-006;p4;m2;;4.0;9000.0;stimuli/p4.png;stimuli/m2.png;right;m;0.0;n;2.3810662999894703;0.0;11.0;decision;50.0;65.0;75.0;90.0;100.0;700.0;1.9;2.0
sub-006;p4;m4;;4.0;9000.0;stimuli/m4.png;stimuli/p4.png;right;m;1.0;m;1.1705282000039006;0.0;12.0;decision;50.0;65.0;75.0;90.0;100.0;700.0;1.7;4.0
sub-006;p2;m5;;2.0;6500.0;stimuli/p2.png;stimuli/m5.png;right;m;1.0;m;1.6079543999949235;0.0;13.0;decision;50.0;65.0;75.0;90.0;100.0;700.0;1.8;5.0
sub-006;p2;m3;;2.0;6500.0;stimuli/m3.png;stimuli/p2.png;right;m;1.0;m;1.134586499989382;0.0;14.0;decision;50.0;65.0;75.0;90.0;100.0;700.0;1.7;3.0
sub-006;p1;m3;;1.0;5000.0;stimuli/p1.png;stimuli/m3.png;right;m;1.0;m;1.2148224999982629;0.0;15.0;decision;50.0;65.0;75.0;90.0;100.0;700.0;1.7;3.0
sub-006;p2;m1;;2.0;6500.0;stimuli/m1.png;stimuli/p2.png;right;m;1.0;m;1.3842386000033002;0.0;16.0;decision;50.0;65.0;75.0;90.0;100.0;700.0;1.8;1.0
sub-006;p2;m4;;2.0;6500.0;stimuli/p2.png;stimuli/m4.png;right;m;1.0;m;0.9952360000024782;0.0;17.0;decision;50.0;65.0;75.0;90.0;100.0;700.0;1.5;4.0
sub-006;p3;m3;;3.0;7500.0;stimuli/m3.png;stimuli/p3.png;right;m;1.0;m;0.9080696999881184;0.0;18.0;decision;50.0;65.0;75.0;90.0;100.0;700.0;1.8;3.0
sub-006;p3;m5;;3.0;7500.0;stimuli/m5.png;stimuli/p3.png;right;m;1.0;m;2.081787200004328;0.0;19.0;decision;50.0;65.0;75.0;90.0;100.0;700.0;1.8;5.0
sub-006;p1;m4;;1.0;5000.0;stimuli/p1.png;stimuli/m4.png;right;m;1.0;m;1.6494553999946218;0.0;20.0;decision;50.0;65.0;75.0;90.0;100.0;700.0;1.6;4.0
sub-006;p5;m2;;5.0;10000.0;stimuli/m2.png;stimuli/p5.png;right;m;0.0;n;2.050216200004797;0.0;21.0;decision;50.0;65.0;75.0;90.0;100.0;700.0;1.7;2.0
sub-006;p4;m5;;4.0;9000.0;stimuli/m5.png;stimuli/p4.png;right;m;1.0;m;1.0712419999908889;0.0;22.0;decision;50.0;65.0;75.0;90.0;100.0;700.0;1.9;5.0
sub-006;p2;m2;;2.0;6500.0;stimuli/p2.png;stimuli/m2.png;right;m;1.0;m;1.5714270000025865;0.0;23.0;decision;50.0;65.0;75.0;90.0;100.0;700.0;1.5;2.0
sub-006;p4;m3;;4.0;9000.0;stimuli/p4.png;stimuli/m3.png;right;m;1.0;m;1.8732454999990296;0.0;24.0;decision;50.0;65.0;75.0;90.0;100.0;700.0;1.9;3.0
sub-006;p5;m4;;5.0;10000.0;stimuli/m4.png;stimuli/p5.png;right;m;1.0;m;2.591244099996402;1.0;0.0;decision;50.0;65.0;75.0;90.0;100.0;700.0;2.0;4.0
sub-006;p4;m1;;4.0;9000.0;stimuli/p4.png;stimuli/m1.png;right;m;0.0;n;2.3706272999988864;1.0;1.0;decision;50.0;65.0;75.0;90.0;100.0;700.0;2.0;1.0
sub-006;p3;m1;;3.0;7500.0;stimuli/m1.png;stimuli/p3.png;right;m;0.0;n;1.4249357000080636;1.0;2.0;decision;50.0;65.0;75.0;90.0;100.0;700.0;1.8;1.0
sub-006;p3;m5;;3.0;7500.0;stimuli/m5.png;stimuli/p3.png;right;m;1.0;m;0.8949511999962851;1.0;3.0;decision;50.0;65.0;75.0;90.0;100.0;700.0;1.5;5.0
sub-006;p3;m3;;3.0;7500.0;stimuli/m3.png;stimuli/p3.png;right;m;1.0;m;1.3212643000006208;1.0;4.0;decision;50.0;65.0;75.0;90.0;100.0;700.0;1.6;3.0
sub-006;p3;m4;;3.0;7500.0;stimuli/m4.png;stimuli/p3.png;right;m;1.0;m;0.9847108999965712;1.0;5.0;decision;50.0;65.0;75.0;90.0;100.0;700.0;1.8;4.0
sub-006;p4;m3;;4.0;9000.0;stimuli/m3.png;stimuli/p4.png;right;m;0.0;n;1.544546299992362;1.0;6.0;decision;50.0;65.0;75.0;90.0;100.0;700.0;1.9;3.0
sub-006;p4;m5;;4.0;9000.0;stimuli/m5.png;stimuli/p4.png;right;m;1.0;m;0.7861562999896705;1.0;7.0;decision;50.0;65.0;75.0;90.0;100.0;700.0;1.6;5.0
sub-006;p1;m2;;1.0;5000.0;stimuli/p1.png;stimuli/m2.png;right;m;1.0;m;1.3907273999939207;1.0;8.0;decision;50.0;65.0;75.0;90.0;100.0;700.0;1.8;2.0
sub-006;p5;m2;;5.0;10000.0;stimuli/p5.png;stimuli/m2.png;right;m;0.0;n;1.3252268999931405;1.0;9.0;decision;50.0;65.0;75.0;90.0;100.0;700.0;1.6;2.0
sub-006;p1;m1;;1.0;5000.0;stimuli/m1.png;stimuli/p1.png;right;m;1.0;m;0.9533207000058609;1.0;10.0;decision;50.0;65.0;75.0;90.0;100.0;700.0;2.0;1.0
sub-006;p5;m3;;5.0;10000.0;stimuli/p5.png;stimuli/m3.png;right;m;0.0;n;1.4785733000026084;1.0;11.0;decision;50.0;65.0;75.0;90.0;100.0;700.0;2.0;3.0
sub-006;p1;m3;;1.0;5000.0;stimuli/p1.png;stimuli/m3.png;right;m;1.0;m;0.7759554000076605;1.0;12.0;decision;50.0;65.0;75.0;90.0;100.0;700.0;1.7;3.0
sub-006;p5;m1;;5.0;10000.0;stimuli/p5.png;stimuli/m1.png;right;m;0.0;n;1.3700251999980535;1.0;13.0;decision;50.0;65.0;75.0;90.0;100.0;700.0;1.7;1.0
sub-006;p1;m4;;1.0;5000.0;stimuli/p1.png;stimuli/m4.png;right;m;1.0;m;0.6375387000007322;1.0;14.0;decision;50.0;65.0;75.0;90.0;100.0;700.0;1.7;4.0
sub-006;p1;m5;;1.0;5000.0;stimuli/m5.png;stimuli/p1.png;right;m;1.0;m;1.881279100009124;1.0;15.0;decision;50.0;65.0;75.0;90.0;100.0;700.0;1.7;5.0
sub-006;p5;m5;;5.0;10000.0;stimuli/p5.png;stimuli/m5.png;right;m;1.0;m;1.0692760999954771;1.0;16.0;decision;50.0;65.0;75.0;90.0;100.0;700.0;1.7;5.0
sub-006;p3;m2;;3.0;7500.0;stimuli/m2.png;stimuli/p3.png;right;m;1.0;m;1.9168127999873832;1.0;17.0;decision;50.0;65.0;75.0;90.0;100.0;700.0;1.5;2.0
sub-006;p4;m2;;4.0;9000.0;stimuli/m2.png;stimuli/p4.png;right;m;0.0;n;1.1084409000031883;1.0;18.0;decision;50.0;65.0;75.0;90.0;100.0;700.0;1.9;2.0
sub-006;p2;m4;;2.0;6500.0;stimuli/p2.png;stimuli/m4.png;right;m;1.0;m;2.0536572999990312;1.0;19.0;decision;50.0;65.0;75.0;90.0;100.0;700.0;1.6;4.0
sub-006;p4;m4;;4.0;9000.0;stimuli/m4.png;stimuli/p4.png;right;m;1.0;m;1.164937399997143;1.0;20.0;decision;50.0;65.0;75.0;90.0;100.0;700.0;2.0;4.0
sub-006;p2;m2;;2.0;6500.0;stimuli/m2.png;stimuli/p2.png;right;m;1.0;m;0.944991199998185;1.0;21.0;decision;50.0;65.0;75.0;90.0;100.0;700.0;1.7;2.0
sub-006;p2;m3;;2.0;6500.0;stimuli/p2.png;stimuli/m3.png;right;m;1.0;m;1.477161899994826;1.0;22.0;decision;50.0;65.0;75.0;90.0;100.0;700.0;1.5;3.0
sub-006;p2;m1;;2.0;6500.0;stimuli/p2.png;stimuli/m1.png;right;m;0.0;n;2.1544162999925898;1.0;23.0;decision;50.0;65.0;75.0;90.0;100.0;700.0;1.6;1.0
sub-006;p2;m5;;2.0;6500.0;stimuli/m5.png;stimuli/p2.png;right;m;1.0;m;1.8058581000077536;1.0;24.0;decision;50.0;65.0;75.0;90.0;100.0;700.0;1.7;5.0
sub-006;p4;m4;;4.0;9000.0;stimuli/p4.png;stimuli/m4.png;right;m;1.0;m;0.8952454999962356;2.0;0.0;decision;50.0;65.0;75.0;90.0;100.0;700.0;1.8;4.0
sub-006;p3;m4;;3.0;7500.0;stimuli/m4.png;stimuli/p3.png;right;m;1.0;m;0.6221416999906069;2.0;1.0;decision;50.0;65.0;75.0;90.0;100.0;700.0;1.9;4.0
sub-006;p4;m3;;4.0;9000.0;stimuli/m3.png;stimuli/p4.png;right;m;0.0;n;1.3699068999994781;2.0;2.0;decision;50.0;65.0;75.0;90.0;100.0;700.0;1.7;3.0
sub-006;p3;m5;;3.0;7500.0;stimuli/p3.png;stimuli/m5.png;right;m;1.0;m;0.7717907000042032;2.0;3.0;decision;50.0;65.0;75.0;90.0;100.0;700.0;1.5;5.0
sub-006;p1;m2;;1.0;5000.0;stimuli/p1.png;stimuli/m2.png;right;m;1.0;m;1.182103899991489;2.0;4.0;decision;50.0;65.0;75.0;90.0;100.0;700.0;1.5;2.0
sub-006;p4;m5;;4.0;9000.0;stimuli/p4.png;stimuli/m5.png;right;m;1.0;m;1.1432247999910032;2.0;5.0;decision;50.0;65.0;75.0;90.0;100.0;700.0;1.7;5.0
sub-006;p2;m3;;2.0;6500.0;stimuli/p2.png;stimuli/m3.png;right;m;1.0;m;1.0295556999917608;2.0;6.0;decision;50.0;65.0;75.0;90.0;100.0;700.0;1.9;3.0
sub-006;p2;m2;;2.0;6500.0;stimuli/m2.png;stimuli/p2.png;right;m;1.0;m;0.7614030000113416;2.0;7.0;decision;50.0;65.0;75.0;90.0;100.0;700.0;1.6;2.0
sub-006;p5;m1;;5.0;10000.0;stimuli/m1.png;stimuli/p5.png;right;m;0.0;n;1.4423851000028662;2.0;8.0;decision;50.0;65.0;75.0;90.0;100.0;700.0;1.7;1.0
sub-006;p3;m1;;3.0;7500.0;stimuli/p3.png;stimuli/m1.png;right;m;0.0;n;1.6646712999936426;2.0;9.0;decision;50.0;65.0;75.0;90.0;100.0;700.0;1.9;1.0
sub-006;p3;m3;;3.0;7500.0;stimuli/m3.png;stimuli/p3.png;right;m;1.0;m;0.9087655999901472;2.0;10.0;decision;50.0;65.0;75.0;90.0;100.0;700.0;1.5;3.0
sub-006;p5;m2;;5.0;10000.0;stimuli/p5.png;stimuli/m2.png;right;m;0.0;n;1.3273530000005849;2.0;11.0;decision;50.0;65.0;75.0;90.0;100.0;700.0;2.0;2.0
sub-006;p4;m1;;4.0;9000.0;stimuli/p4.png;stimuli/m1.png;right;m;0.0;n;1.9146474000008311;2.0;12.0;decision;50.0;65.0;75.0;90.0;100.0;700.0;1.8;1.0
sub-006;p2;m1;;2.0;6500.0;stimuli/m1.png;stimuli/p2.png;right;m;1.0;m;2.1670746000017966;2.0;13.0;decision;50.0;65.0;75.0;90.0;100.0;700.0;2.0;1.0
sub-006;p1;m4;;1.0;5000.0;stimuli/p1.png;stimuli/m4.png;right;m;1.0;m;0.8849820000032196;2.0;14.0;decision;50.0;65.0;75.0;90.0;100.0;700.0;1.9;4.0
sub-006;p4;m2;;4.0;9000.0;stimuli/m2.png;stimuli/p4.png;right;m;0.0;n;1.9574292000033893;2.0;15.0;decision;50.0;65.0;75.0;90.0;100.0;700.0;1.6;2.0
sub-006;p5;m5;;5.0;10000.0;stimuli/m5.png;stimuli/p5.png;right;m;1.0;m;1.4036049999995155;2.0;16.0;decision;50.0;65.0;75.0;90.0;100.0;700.0;1.8;5.0
sub-006;p2;m5;;2.0;6500.0;stimuli/m5.png;stimuli/p2.png;right;m;1.0;m;1.2278565000015078;2.0;17.0;decision;50.0;65.0;75.0;90.0;100.0;700.0;1.9;5.0
sub-006;p1;m1;;1.0;5000.0;stimuli/m1.png;stimuli/p1.png;right;m;1.0;m;0.83657349999703;2.0;18.0;decision;50.0;65.0;75.0;90.0;100.0;700.0;1.9;1.0
sub-006;p1;m3;;1.0;5000.0;stimuli/m3.png;stimuli/p1.png;right;m;1.0;m;0.8100203999929363;2.0;19.0;decision;50.0;65.0;75.0;90.0;100.0;700.0;1.6;3.0
sub-006;p3;m2;;3.0;7500.0;stimuli/p3.png;stimuli/m2.png;right;m;0.0;n;1.8541968999925305;2.0;20.0;decision;50.0;65.0;75.0;90.0;100.0;700.0;1.6;2.0
sub-006;p1;m5;;1.0;5000.0;stimuli/p1.png;stimuli/m5.png;right;m;1.0;m;0.7873546000046191;2.0;21.0;decision;50.0;65.0;75.0;90.0;100.0;700.0;1.7;5.0
sub-006;p5;m3;;5.0;10000.0;stimuli/m3.png;stimuli/p5.png;right;m;0.0;n;1.4142948999942746;2.0;22.0;decision;50.0;65.0;75.0;90.0;100.0;700.0;1.6;3.0
sub-006;p5;m4;;5.0;10000.0;stimuli/p5.png;stimuli/m4.png;right;m;1.0;m;2.682601099993917;2.0;23.0;decision;50.0;65.0;75.0;90.0;100.0;700.0;1.8;4.0
sub-006;p2;m4;;2.0;6500.0;stimuli/m4.png;stimuli/p2.png;right;m;1.0;m;1.5614466999977594;2.0;24.0;decision;50.0;65.0;75.0;90.0;100.0;700.0;1.8;4.0
sub-006;p5;m3;;5.0;10000.0;stimuli/p5.png;stimuli/m3.png;right;m;0.0;n;1.5774046000005906;3.0;0.0;decision;50.0;65.0;75.0;90.0;100.0;700.0;1.8;3.0
sub-006;p4;m5;;4.0;9000.0;stimuli/m5.png;stimuli/p4.png;right;m;1.0;m;1.3182857999927364;3.0;1.0;decision;50.0;65.0;75.0;90.0;100.0;700.0;1.5;5.0
sub-006;p1;m5;;1.0;5000.0;stimuli/m5.png;stimuli/p1.png;right;m;1.0;m;2.6551297999976673;3.0;2.0;decision;50.0;65.0;75.0;90.0;100.0;700.0;2.0;5.0
sub-006;p3;m2;;3.0;7500.0;stimuli/p3.png;stimuli/m2.png;right;m;1.0;m;0.7812772000033874;3.0;3.0;decision;50.0;65.0;75.0;90.0;100.0;700.0;1.8;2.0
sub-006;p3;m3;;3.0;7500.0;stimuli/p3.png;stimuli/m3.png;right;m;1.0;m;0.7393064000061713;3.0;4.0;decision;50.0;65.0;75.0;90.0;100.0;700.0;1.9;3.0
sub-006;p3;m5;;3.0;7500.0;stimuli/m5.png;stimuli/p3.png;right;m;1.0;m;0.6795187999960035;3.0;5.0;decision;50.0;65.0;75.0;90.0;100.0;700.0;1.7;5.0
sub-006;p2;m5;;2.0;6500.0;stimuli/m5.png;stimuli/p2.png;right;m;1.0;m;0.9097153999900912;3.0;6.0;decision;50.0;65.0;75.0;90.0;100.0;700.0;1.5;5.0
sub-006;p4;m1;;4.0;9000.0;stimuli/m1.png;stimuli/p4.png;right;m;0.0;n;1.816318600001977;3.0;7.0;decision;50.0;65.0;75.0;90.0;100.0;700.0;1.7;1.0
sub-006;p5;m2;;5.0;10000.0;stimuli/m2.png;stimuli/p5.png;right;m;0.0;n;1.164027899998473;3.0;8.0;decision;50.0;65.0;75.0;90.0;100.0;700.0;1.5;2.0
sub-006;p3;m1;;3.0;7500.0;stimuli/m1.png;stimuli/p3.png;right;m;0.0;n;1.5425241000048118;3.0;9.0;decision;50.0;65.0;75.0;90.0;100.0;700.0;1.7;1.0
sub-006;p1;m1;;1.0;5000.0;stimuli/m1.png;stimuli/p1.png;right;m;1.0;m;0.95303750000312;3.0;10.0;decision;50.0;65.0;75.0;90.0;100.0;700.0;1.9;1.0
sub-006;p3;m4;;3.0;7500.0;stimuli/m4.png;stimuli/p3.png;right;m;1.0;m;1.1606332999945153;3.0;11.0;decision;50.0;65.0;75.0;90.0;100.0;700.0;1.8;4.0
sub-006;p5;m1;;5.0;10000.0;stimuli/p5.png;stimuli/m1.png;right;m;0.0;n;1.1265835999947742;3.0;12.0;decision;50.0;65.0;75.0;90.0;100.0;700.0;1.7;1.0
sub-006;p4;m3;;4.0;9000.0;stimuli/m3.png;stimuli/p4.png;right;m;0.0;n;1.2974612999969397;3.0;13.0;decision;50.0;65.0;75.0;90.0;100.0;700.0;1.8;3.0
sub-006;p5;m5;;5.0;10000.0;stimuli/m5.png;stimuli/p5.png;right;m;1.0;m;0.7634266999957617;3.0;14.0;decision;50.0;65.0;75.0;90.0;100.0;700.0;1.8;5.0
sub-006;p2;m4;;2.0;6500.0;stimuli/p2.png;stimuli/m4.png;right;m;1.0;m;0.8790437999996357;3.0;15.0;decision;50.0;65.0;75.0;90.0;100.0;700.0;1.9;4.0
sub-006;p2;m1;;2.0;6500.0;stimuli/p2.png;stimuli/m1.png;right;m;0.0;n;1.8577856000047177;3.0;16.0;decision;50.0;65.0;75.0;90.0;100.0;700.0;1.5;1.0
sub-006;p1;m2;;1.0;5000.0;stimuli/m2.png;stimuli/p1.png;right;m;1.0;m;0.8901765000045998;3.0;17.0;decision;50.0;65.0;75.0;90.0;100.0;700.0;1.8;2.0
sub-006;p1;m4;;1.0;5000.0;stimuli/m4.png;stimuli/p1.png;right;m;1.0;m;0.8672348999971291;3.0;18.0;decision;50.0;65.0;75.0;90.0;100.0;700.0;1.7;4.0
sub-006;p4;m4;;4.0;9000.0;stimuli/m4.png;stimuli/p4.png;right;m;1.0;m;0.7249699999956647;3.0;19.0;decision;50.0;65.0;75.0;90.0;100.0;700.0;1.8;4.0
sub-006;p4;m2;;4.0;9000.0;stimuli/p4.png;stimuli/m2.png;right;m;0.0;n;1.2820635000098264;3.0;20.0;decision;50.0;65.0;75.0;90.0;100.0;700.0;1.6;2.0
sub-006;p1;m3;;1.0;5000.0;stimuli/m3.png;stimuli/p1.png;right;m;1.0;m;0.9434173000045121;3.0;21.0;decision;50.0;65.0;75.0;90.0;100.0;700.0;1.5;3.0
sub-006;p2;m3;;2.0;6500.0;stimuli/p2.png;stimuli/m3.png;right;m;1.0;m;0.7681451000098605;3.0;22.0;decision;50.0;65.0;75.0;90.0;100.0;700.0;1.6;3.0
sub-006;p2;m2;;2.0;6500.0;stimuli/p2.png;stimuli/m2.png;right;m;1.0;m;1.1570876000041608;3.0;23.0;decision;50.0;65.0;75.0;90.0;100.0;700.0;1.6;2.0
sub-006;p5;m4;;5.0;10000.0;stimuli/m4.png;stimuli/p5.png;right;m;0.0;n;1.0073952999955509;3.0;24.0;decision;50.0;65.0;75.0;90.0;100.0;700.0;1.7;4.0
sub-006;p3;m3;;3.0;7500.0;stimuli/m3.png;stimuli/p3.png;right;m;1.0;m;1.4326964000065343;4.0;0.0;decision;50.0;65.0;75.0;90.0;100.0;700.0;1.8;3.0
sub-006;p5;m3;;5.0;10000.0;stimuli/p5.png;stimuli/m3.png;right;m;0.0;n;0.8761080999975093;4.0;1.0;decision;50.0;65.0;75.0;90.0;100.0;700.0;1.8;3.0
sub-006;p2;m5;;2.0;6500.0;stimuli/p2.png;stimuli/m5.png;right;m;1.0;m;0.7734214999945834;4.0;2.0;decision;50.0;65.0;75.0;90.0;100.0;700.0;1.9;5.0
sub-006;p5;m4;;5.0;10000.0;stimuli/p5.png;stimuli/m4.png;right;m;0.0;n;1.0385979999991832;4.0;3.0;decision;50.0;65.0;75.0;90.0;100.0;700.0;1.6;4.0
sub-006;p4;m1;;4.0;9000.0;stimuli/m1.png;stimuli/p4.png;right;m;0.0;n;1.4464471000101184;4.0;4.0;decision;50.0;65.0;75.0;90.0;100.0;700.0;1.8;1.0
sub-006;p3;m5;;3.0;7500.0;stimuli/p3.png;stimuli/m5.png;right;m;1.0;m;0.8808706999989226;4.0;5.0;decision;50.0;65.0;75.0;90.0;100.0;700.0;1.8;5.0
sub-006;p1;m4;;1.0;5000.0;stimuli/m4.png;stimuli/p1.png;right;m;1.0;m;0.9266654999955791;4.0;6.0;decision;50.0;65.0;75.0;90.0;100.0;700.0;1.6;4.0
sub-006;p3;m1;;3.0;7500.0;stimuli/m1.png;stimuli/p3.png;right;m;0.0;n;2.6450570000015428;4.0;7.0;decision;50.0;65.0;75.0;90.0;100.0;700.0;1.7;1.0
sub-006;p3;m4;;3.0;7500.0;stimuli/p3.png;stimuli/m4.png;right;m;1.0;m;0.6998388999927556;4.0;8.0;decision;50.0;65.0;75.0;90.0;100.0;700.0;1.5;4.0
sub-006;p1;m2;;1.0;5000.0;stimuli/m2.png;stimuli/p1.png;right;m;1.0;m;0.8604453000007197;4.0;9.0;decision;50.0;65.0;75.0;90.0;100.0;700.0;1.6;2.0
sub-006;p5;m2;;5.0;10000.0;stimuli/m2.png;stimuli/p5.png;right;m;0.0;n;1.0761388000100849;4.0;10.0;decision;50.0;65.0;75.0;90.0;100.0;700.0;1.5;2.0
sub-006;p1;m5;;1.0;5000.0;stimuli/p1.png;stimuli/m5.png;right;m;1.0;m;0.7593438000039896;4.0;11.0;decision;50.0;65.0;75.0;90.0;100.0;700.0;1.8;5.0
sub-006;p1;m3;;1.0;5000.0;stimuli/m3.png;stimuli/p1.png;right;m;1.0;m;0.6854564999957802;4.0;12.0;decision;50.0;65.0;75.0;90.0;100.0;700.0;1.9;3.0
sub-006;p5;m1;;5.0;10000.0;stimuli/m1.png;stimuli/p5.png;right;m;0.0;n;0.9814091000007464;4.0;13.0;decision;50.0;65.0;75.0;90.0;100.0;700.0;1.6;1.0
sub-006;p4;m3;;4.0;9000.0;stimuli/m3.png;stimuli/p4.png;right;m;0.0;n;1.5000822000001788;4.0;14.0;decision;50.0;65.0;75.0;90.0;100.0;700.0;1.8;3.0
sub-006;p2;m1;;2.0;6500.0;stimuli/p2.png;stimuli/m1.png;right;m;0.0;n;1.2152580999972995;4.0;15.0;decision;50.0;65.0;75.0;90.0;100.0;700.0;1.5;1.0
sub-006;p4;m2;;4.0;9000.0;stimuli/m2.png;stimuli/p4.png;right;m;0.0;n;1.4516195000032894;4.0;16.0;decision;50.0;65.0;75.0;90.0;100.0;700.0;1.7;2.0
sub-006;p5;m5;;5.0;10000.0;stimuli/p5.png;stimuli/m5.png;right;m;1.0;m;0.8148175000096671;4.0;17.0;decision;50.0;65.0;75.0;90.0;100.0;700.0;1.5;5.0
sub-006;p4;m4;;4.0;9000.0;stimuli/p4.png;stimuli/m4.png;right;m;1.0;m;1.2790717000025325;4.0;18.0;decision;50.0;65.0;75.0;90.0;100.0;700.0;1.5;4.0
sub-006;p2;m2;;2.0;6500.0;stimuli/p2.png;stimuli/m2.png;right;m;1.0;m;1.5762991999945368;4.0;19.0;decision;50.0;65.0;75.0;90.0;100.0;700.0;1.8;2.0
sub-006;p4;m5;;4.0;9000.0;stimuli/m5.png;stimuli/p4.png;right;m;1.0;m;1.5292370999959533;4.0;20.0;decision;50.0;65.0;75.0;90.0;100.0;700.0;1.9;5.0
sub-006;p2;m3;;2.0;6500.0;stimuli/m3.png;stimuli/p2.png;right;m;1.0;m;1.5043155000021216;4.0;21.0;decision;50.0;65.0;75.0;90.0;100.0;700.0;1.9;3.0
sub-006;p1;m1;;1.0;5000.0;stimuli/p1.png;stimuli/m1.png;right;m;1.0;m;1.0247641000023575;4.0;22.0;decision;50.0;65.0;75.0;90.0;100.0;700.0;1.9;1.0
sub-006;p2;m4;;2.0;6500.0;stimuli/m4.png;stimuli/p2.png;right;m;1.0;m;0.9066123999946284;4.0;23.0;decision;50.0;65.0;75.0;90.0;100.0;700.0;1.8;4.0
sub-006;p3;m2;;3.0;7500.0;stimuli/m2.png;stimuli/p3.png;right;m;0.0;n;1.170576100004837;4.0;24.0;decision;50.0;65.0;75.0;90.0;100.0;700.0;1.7;2.0
sub-007;p2;m4;;2.0;2000.0;stimuli/m4.png;stimuli/p2.png;right;m;0.0;;;0.0;0.0;decision;15.0;20.0;30.0;45.0;60.0;700.0;1.8;4.0
sub-007;p1;m3;;1.0;1500.0;stimuli/m3.png;stimuli/p1.png;right;m;1.0;m;1.1679934000003414;0.0;1.0;decision;15.0;20.0;30.0;45.0;60.0;700.0;2.0;3.0
sub-007;p1;m5;;1.0;1500.0;stimuli/m5.png;stimuli/p1.png;right;m;1.0;m;1.2595743000001676;0.0;2.0;decision;15.0;20.0;30.0;45.0;60.0;700.0;1.7;5.0
sub-007;p4;m3;;4.0;4500.0;stimuli/p4.png;stimuli/m3.png;right;m;0.0;n;1.385526900000059;0.0;3.0;decision;15.0;20.0;30.0;45.0;60.0;700.0;1.5;3.0
sub-007;p5;m4;;5.0;6000.0;stimuli/m4.png;stimuli/p5.png;right;m;0.0;n;1.1046058000001722;0.0;4.0;decision;15.0;20.0;30.0;45.0;60.0;700.0;2.0;4.0
sub-007;p4;m4;;4.0;4500.0;stimuli/m4.png;stimuli/p4.png;right;m;1.0;m;1.5531674000003477;0.0;5.0;decision;15.0;20.0;30.0;45.0;60.0;700.0;1.9;4.0
sub-007;p5;m1;;5.0;6000.0;stimuli/m1.png;stimuli/p5.png;right;m;0.0;n;0.8118623000000298;0.0;6.0;decision;15.0;20.0;30.0;45.0;60.0;700.0;1.6;1.0
sub-007;p5;m2;;5.0;6000.0;stimuli/m2.png;stimuli/p5.png;right;m;0.0;n;1.0289651000002775;0.0;7.0;decision;15.0;20.0;30.0;45.0;60.0;700.0;1.9;2.0
sub-007;p3;m3;;3.0;3000.0;stimuli/p3.png;stimuli/m3.png;right;m;1.0;m;1.4672425000003386;0.0;8.0;decision;15.0;20.0;30.0;45.0;60.0;700.0;1.6;3.0
sub-007;p1;m4;;1.0;1500.0;stimuli/p1.png;stimuli/m4.png;right;m;1.0;m;1.4264760000000931;0.0;9.0;decision;15.0;20.0;30.0;45.0;60.0;700.0;1.6;4.0
sub-007;p4;m5;;4.0;4500.0;stimuli/m5.png;stimuli/p4.png;right;m;1.0;m;1.8438508000003824;0.0;10.0;decision;15.0;20.0;30.0;45.0;60.0;700.0;2.0;5.0
sub-007;p2;m5;;2.0;2000.0;stimuli/p2.png;stimuli/m5.png;right;m;1.0;m;1.4391672000001563;0.0;11.0;decision;15.0;20.0;30.0;45.0;60.0;700.0;2.0;5.0
sub-007;p3;m1;;3.0;3000.0;stimuli/p3.png;stimuli/m1.png;right;m;0.0;n;1.1887615000005098;0.0;12.0;decision;15.0;20.0;30.0;45.0;60.0;700.0;1.8;1.0
sub-007;p4;m2;;4.0;4500.0;stimuli/m2.png;stimuli/p4.png;right;m;0.0;n;1.0256428000002416;0.0;13.0;decision;15.0;20.0;30.0;45.0;60.0;700.0;2.0;2.0
sub-007;p3;m4;;3.0;3000.0;stimuli/p3.png;stimuli/m4.png;right;m;1.0;m;1.5591466000000764;0.0;14.0;decision;15.0;20.0;30.0;45.0;60.0;700.0;1.8;4.0
sub-007;p1;m2;;1.0;1500.0;stimuli/m2.png;stimuli/p1.png;right;m;1.0;m;1.412612600000557;0.0;15.0;decision;15.0;20.0;30.0;45.0;60.0;700.0;2.0;2.0
sub-007;p3;m5;;3.0;3000.0;stimuli/m5.png;stimuli/p3.png;right;m;1.0;m;1.1947738000003485;0.0;16.0;decision;15.0;20.0;30.0;45.0;60.0;700.0;1.7;5.0
sub-007;p5;m5;;5.0;6000.0;stimuli/m5.png;stimuli/p5.png;right;m;1.0;m;1.9084152999998882;0.0;17.0;decision;15.0;20.0;30.0;45.0;60.0;700.0;1.8;5.0
sub-007;p2;m3;;2.0;2000.0;stimuli/m3.png;stimuli/p2.png;right;m;1.0;m;1.926588300000276;0.0;18.0;decision;15.0;20.0;30.0;45.0;60.0;700.0;1.5;3.0
sub-007;p1;m1;;1.0;1500.0;stimuli/p1.png;stimuli/m1.png;right;m;1.0;m;1.1781976000002032;0.0;19.0;decision;15.0;20.0;30.0;45.0;60.0;700.0;1.6;1.0
sub-007;p3;m2;;3.0;3000.0;stimuli/m2.png;stimuli/p3.png;right;m;0.0;n;1.2044607000002543;0.0;20.0;decision;15.0;20.0;30.0;45.0;60.0;700.0;1.7;2.0
sub-007;p4;m1;;4.0;4500.0;stimuli/m1.png;stimuli/p4.png;right;m;0.0;n;1.3545499000001655;0.0;21.0;decision;15.0;20.0;30.0;45.0;60.0;700.0;1.5;1.0
sub-007;p2;m1;;2.0;2000.0;stimuli/p2.png;stimuli/m1.png;right;m;0.0;n;1.499709200000325;0.0;22.0;decision;15.0;20.0;30.0;45.0;60.0;700.0;1.8;1.0
sub-007;p5;m3;;5.0;6000.0;stimuli/m3.png;stimuli/p5.png;right;m;0.0;n;1.0173602000004394;0.0;23.0;decision;15.0;20.0;30.0;45.0;60.0;700.0;1.5;3.0
sub-007;p2;m2;;2.0;2000.0;stimuli/p2.png;stimuli/m2.png;right;m;1.0;m;0.9605326000005334;0.0;24.0;decision;15.0;20.0;30.0;45.0;60.0;700.0;1.5;2.0
sub-007;p1;m5;;1.0;1500.0;stimuli/p1.png;stimuli/m5.png;right;m;1.0;m;1.1528009000003294;1.0;0.0;decision;15.0;20.0;30.0;45.0;60.0;700.0;1.5;5.0
sub-007;p4;m2;;4.0;4500.0;stimuli/p4.png;stimuli/m2.png;right;m;0.0;n;0.9672586000001502;1.0;1.0;decision;15.0;20.0;30.0;45.0;60.0;700.0;1.6;2.0
sub-007;p2;m4;;2.0;2000.0;stimuli/p2.png;stimuli/m4.png;right;m;1.0;m;0.9642812000001868;1.0;2.0;decision;15.0;20.0;30.0;45.0;60.0;700.0;1.8;4.0
sub-007;p1;m2;;1.0;1500.0;stimuli/p1.png;stimuli/m2.png;right;m;1.0;m;1.8177986000005149;1.0;3.0;decision;15.0;20.0;30.0;45.0;60.0;700.0;1.6;2.0
sub-007;p3;m3;;3.0;3000.0;stimuli/m3.png;stimuli/p3.png;right;m;1.0;m;1.1676765000006526;1.0;4.0;decision;15.0;20.0;30.0;45.0;60.0;700.0;1.5;3.0
sub-007;p3;m4;;3.0;3000.0;stimuli/p3.png;stimuli/m4.png;right;m;1.0;m;1.9355602000000545;1.0;5.0;decision;15.0;20.0;30.0;45.0;60.0;700.0;1.9;4.0
sub-007;p4;m4;;4.0;4500.0;stimuli/p4.png;stimuli/m4.png;right;m;1.0;m;1.2594945999999254;1.0;6.0;decision;15.0;20.0;30.0;45.0;60.0;700.0;1.5;4.0
sub-007;p1;m3;;1.0;1500.0;stimuli/m3.png;stimuli/p1.png;right;m;1.0;m;1.2309250000002976;1.0;7.0;decision;15.0;20.0;30.0;45.0;60.0;700.0;1.9;3.0
sub-007;p3;m1;;3.0;3000.0;stimuli/p3.png;stimuli/m1.png;right;m;0.0;n;1.3129831000001104;1.0;8.0;decision;15.0;20.0;30.0;45.0;60.0;700.0;1.9;1.0
sub-007;p1;m1;;1.0;1500.0;stimuli/m1.png;stimuli/p1.png;right;m;1.0;m;1.41907190000029;1.0;9.0;decision;15.0;20.0;30.0;45.0;60.0;700.0;1.5;1.0
sub-007;p4;m1;;4.0;4500.0;stimuli/p4.png;stimuli/m1.png;right;m;0.0;n;1.2763918000005106;1.0;10.0;decision;15.0;20.0;30.0;45.0;60.0;700.0;1.8;1.0
sub-007;p2;m1;;2.0;2000.0;stimuli/p2.png;stimuli/m1.png;right;m;0.0;n;1.1995517000004838;1.0;11.0;decision;15.0;20.0;30.0;45.0;60.0;700.0;1.9;1.0
sub-007;p2;m3;;2.0;2000.0;stimuli/p2.png;stimuli/m3.png;right;m;1.0;m;1.5206419000001006;1.0;12.0;decision;15.0;20.0;30.0;45.0;60.0;700.0;1.9;3.0
sub-007;p5;m4;;5.0;6000.0;stimuli/m4.png;stimuli/p5.png;right;m;0.0;n;0.8414558000004035;1.0;13.0;decision;15.0;20.0;30.0;45.0;60.0;700.0;1.7;4.0
sub-007;p5;m3;;5.0;6000.0;stimuli/p5.png;stimuli/m3.png;right;m;0.0;n;0.9206002000000808;1.0;14.0;decision;15.0;20.0;30.0;45.0;60.0;700.0;1.7;3.0
sub-007;p4;m5;;4.0;4500.0;stimuli/m5.png;stimuli/p4.png;right;m;1.0;m;1.461460700000316;1.0;15.0;decision;15.0;20.0;30.0;45.0;60.0;700.0;1.6;5.0
sub-007;p5;m2;;5.0;6000.0;stimuli/p5.png;stimuli/m2.png;right;m;0.0;n;1.4121930000001155;1.0;16.0;decision;15.0;20.0;30.0;45.0;60.0;700.0;1.5;2.0
sub-007;p1;m4;;1.0;1500.0;stimuli/p1.png;stimuli/m4.png;right;m;1.0;m;1.0676766999999927;1.0;17.0;decision;15.0;20.0;30.0;45.0;60.0;700.0;2.0;4.0
sub-007;p3;m2;;3.0;3000.0;stimuli/p3.png;stimuli/m2.png;right;m;0.0;n;1.3157452000000376;1.0;18.0;decision;15.0;20.0;30.0;45.0;60.0;700.0;1.8;2.0
sub-007;p5;m1;;5.0;6000.0;stimuli/p5.png;stimuli/m1.png;right;m;0.0;n;1.2755777000002126;1.0;19.0;decision;15.0;20.0;30.0;45.0;60.0;700.0;1.6;1.0
sub-007;p2;m5;;2.0;2000.0;stimuli/p2.png;stimuli/m5.png;right;m;1.0;m;1.3389277999999651;1.0;20.0;decision;15.0;20.0;30.0;45.0;60.0;700.0;1.5;5.0
sub-007;p3;m5;;3.0;3000.0;stimuli/p3.png;stimuli/m5.png;right;m;1.0;m;1.5791590000003453;1.0;21.0;decision;15.0;20.0;30.0;45.0;60.0;700.0;1.8;5.0
sub-007;p4;m3;;4.0;4500.0;stimuli/p4.png;stimuli/m3.png;right;m;0.0;n;1.3599087000002328;1.0;22.0;decision;15.0;20.0;30.0;45.0;60.0;700.0;1.8;3.0
sub-007;p5;m5;;5.0;6000.0;stimuli/m5.png;stimuli/p5.png;right;m;1.0;m;1.224582200000441;1.0;23.0;decision;15.0;20.0;30.0;45.0;60.0;700.0;1.7;5.0
sub-007;p2;m2;;2.0;2000.0;stimuli/m2.png;stimuli/p2.png;right;m;1.0;m;1.0629182000002402;1.0;24.0;decision;15.0;20.0;30.0;45.0;60.0;700.0;2.0;2.0
sub-007;p1;m1;;1.0;1500.0;stimuli/m1.png;stimuli/p1.png;right;m;1.0;m;0.9128868000002512;2.0;0.0;decision;15.0;20.0;30.0;45.0;60.0;700.0;1.8;1.0
sub-007;p2;m5;;2.0;2000.0;stimuli/p2.png;stimuli/m5.png;right;m;1.0;m;0.9862753000002158;2.0;1.0;decision;15.0;20.0;30.0;45.0;60.0;700.0;1.7;5.0
sub-007;p4;m4;;4.0;4500.0;stimuli/p4.png;stimuli/m4.png;right;m;1.0;m;1.1573481000000356;2.0;2.0;decision;15.0;20.0;30.0;45.0;60.0;700.0;2.0;4.0
sub-007;p2;m2;;2.0;2000.0;stimuli/m2.png;stimuli/p2.png;right;m;1.0;m;1.311404500000208;2.0;3.0;decision;15.0;20.0;30.0;45.0;60.0;700.0;1.8;2.0
sub-007;p2;m3;;2.0;2000.0;stimuli/p2.png;stimuli/m3.png;right;m;1.0;m;1.004362100000435;2.0;4.0;decision;15.0;20.0;30.0;45.0;60.0;700.0;1.6;3.0
sub-007;p4;m1;;4.0;4500.0;stimuli/p4.png;stimuli/m1.png;right;m;0.0;n;0.8428401000005579;2.0;5.0;decision;15.0;20.0;30.0;45.0;60.0;700.0;1.7;1.0
sub-007;p2;m1;;2.0;2000.0;stimuli/p2.png;stimuli/m1.png;right;m;0.0;n;1.7887719000000288;2.0;6.0;decision;15.0;20.0;30.0;45.0;60.0;700.0;2.0;1.0
sub-007;p4;m2;;4.0;4500.0;stimuli/m2.png;stimuli/p4.png;right;m;0.0;n;1.0527403000000959;2.0;7.0;decision;15.0;20.0;30.0;45.0;60.0;700.0;1.6;2.0
sub-007;p5;m4;;5.0;6000.0;stimuli/p5.png;stimuli/m4.png;right;m;0.0;n;0.9803386000003228;2.0;8.0;decision;15.0;20.0;30.0;45.0;60.0;700.0;1.5;4.0
sub-007;p1;m4;;1.0;1500.0;stimuli/m4.png;stimuli/p1.png;right;m;1.0;m;1.5219479000002138;2.0;9.0;decision;15.0;20.0;30.0;45.0;60.0;700.0;1.7;4.0
sub-007;p1;m2;;1.0;1500.0;stimuli/p1.png;stimuli/m2.png;right;m;1.0;m;1.5619322000002285;2.0;10.0;decision;15.0;20.0;30.0;45.0;60.0;700.0;1.6;2.0
sub-007;p5;m3;;5.0;6000.0;stimuli/p5.png;stimuli/m3.png;right;m;0.0;n;1.2697635000004084;2.0;11.0;decision;15.0;20.0;30.0;45.0;60.0;700.0;1.6;3.0
sub-007;p3;m2;;3.0;3000.0;stimuli/p3.png;stimuli/m2.png;right;m;0.0;n;1.6532847000003132;2.0;12.0;decision;15.0;20.0;30.0;45.0;60.0;700.0;1.9;2.0
sub-007;p5;m5;;5.0;6000.0;stimuli/p5.png;stimuli/m5.png;right;m;1.0;m;1.1717994000000544;2.0;13.0;decision;15.0;20.0;30.0;45.0;60.0;700.0;1.5;5.0
sub-007;p5;m2;;5.0;6000.0;stimuli/m2.png;stimuli/p5.png;right;m;0.0;n;0.8247936000002483;2.0;14.0;decision;15.0;20.0;30.0;45.0;60.0;700.0;1.5;2.0
sub-007;p1;m5;;1.0;1500.0;stimuli/m5.png;stimuli/p1.png;right;m;1.0;m;0.90673950000064;2.0;15.0;decision;15.0;20.0;30.0;45.0;60.0;700.0;1.5;5.0
sub-007;p1;m3;;1.0;1500.0;stimuli/m3.png;stimuli/p1.png;right;m;1.0;m;1.103199900000163;2.0;16.0;decision;15.0;20.0;30.0;45.0;60.0;700.0;1.8;3.0
sub-007;p2;m4;;2.0;2000.0;stimuli/m4.png;stimuli/p2.png;right;m;1.0;m;1.458374100000583;2.0;17.0;decision;15.0;20.0;30.0;45.0;60.0;700.0;1.8;4.0
sub-007;p3;m4;;3.0;3000.0;stimuli/m4.png;stimuli/p3.png;right;m;1.0;m;0.707164400000238;2.0;18.0;decision;15.0;20.0;30.0;45.0;60.0;700.0;1.5;4.0
sub-007;p5;m1;;5.0;6000.0;stimuli/m1.png;stimuli/p5.png;right;m;0.0;n;1.1637344000005214;2.0;19.0;decision;15.0;20.0;30.0;45.0;60.0;700.0;1.5;1.0
sub-007;p4;m3;;4.0;4500.0;stimuli/m3.png;stimuli/p4.png;right;m;0.0;n;1.1225202000000536;2.0;20.0;decision;15.0;20.0;30.0;45.0;60.0;700.0;1.6;3.0
sub-007;p3;m3;;3.0;3000.0;stimuli/p3.png;stimuli/m3.png;right;m;1.0;m;1.528925600000548;2.0;21.0;decision;15.0;20.0;30.0;45.0;60.0;700.0;2.0;3.0
sub-007;p4;m5;;4.0;4500.0;stimuli/p4.png;stimuli/m5.png;right;m;1.0;m;0.9707745000000614;2.0;22.0;decision;15.0;20.0;30.0;45.0;60.0;700.0;2.0;5.0
sub-007;p3;m1;;3.0;3000.0;stimuli/m1.png;stimuli/p3.png;right;m;0.0;n;0.9160893000002944;2.0;23.0;decision;15.0;20.0;30.0;45.0;60.0;700.0;1.6;1.0
sub-007;p3;m5;;3.0;3000.0;stimuli/p3.png;stimuli/m5.png;right;m;1.0;m;1.2421245000005;2.0;24.0;decision;15.0;20.0;30.0;45.0;60.0;700.0;1.7;5.0
sub-007;p2;m1;;2.0;2000.0;stimuli/m1.png;stimuli/p2.png;right;m;0.0;n;1.2445895000005294;3.0;0.0;decision;15.0;20.0;30.0;45.0;60.0;700.0;1.8;1.0
sub-007;p2;m4;;2.0;2000.0;stimuli/m4.png;stimuli/p2.png;right;m;1.0;m;0.7137021000003188;3.0;1.0;decision;15.0;20.0;30.0;45.0;60.0;700.0;1.9;4.0
sub-007;p5;m3;;5.0;6000.0;stimuli/p5.png;stimuli/m3.png;right;m;0.0;n;0.7251529000000119;3.0;2.0;decision;15.0;20.0;30.0;45.0;60.0;700.0;1.5;3.0
sub-007;p1;m4;;1.0;1500.0;stimuli/p1.png;stimuli/m4.png;right;m;1.0;m;0.9609622000002672;3.0;3.0;decision;15.0;20.0;30.0;45.0;60.0;700.0;1.7;4.0
sub-007;p3;m1;;3.0;3000.0;stimuli/m1.png;stimuli/p3.png;right;m;0.0;n;0.9793880000001992;3.0;4.0;decision;15.0;20.0;30.0;45.0;60.0;700.0;1.8;1.0
sub-007;p3;m2;;3.0;3000.0;stimuli/m2.png;stimuli/p3.png;right;m;0.0;n;0.9887585000005856;3.0;5.0;decision;15.0;20.0;30.0;45.0;60.0;700.0;1.6;2.0
sub-007;p5;m1;;5.0;6000.0;stimuli/m1.png;stimuli/p5.png;right;m;0.0;n;0.7323285000002215;3.0;6.0;decision;15.0;20.0;30.0;45.0;60.0;700.0;1.7;1.0
sub-007;p1;m3;;1.0;1500.0;stimuli/p1.png;stimuli/m3.png;right;m;1.0;m;1.4943096000001788;3.0;7.0;decision;15.0;20.0;30.0;45.0;60.0;700.0;1.7;3.0
sub-007;p4;m5;;4.0;4500.0;stimuli/p4.png;stimuli/m5.png;right;m;1.0;m;1.9498978000001443;3.0;8.0;decision;15.0;20.0;30.0;45.0;60.0;700.0;1.7;5.0
sub-007;p5;m5;;5.0;6000.0;stimuli/p5.png;stimuli/m5.png;right;m;0.0;n;1.812976200000321;3.0;9.0;decision;15.0;20.0;30.0;45.0;60.0;700.0;1.5;5.0
sub-007;p1;m5;;1.0;1500.0;stimuli/p1.png;stimuli/m5.png;right;m;1.0;m;0.82878540000047;3.0;10.0;decision;15.0;20.0;30.0;45.0;60.0;700.0;1.9;5.0
sub-007;p3;m4;;3.0;3000.0;stimuli/p3.png;stimuli/m4.png;right;m;1.0;m;1.0911276000001635;3.0;11.0;decision;15.0;20.0;30.0;45.0;60.0;700.0;1.7;4.0
sub-007;p1;m2;;1.0;1500.0;stimuli/p1.png;stimuli/m2.png;right;m;1.0;m;1.0488264000000531;3.0;12.0;decision;15.0;20.0;30.0;45.0;60.0;700.0;1.7;2.0
sub-007;p3;m3;;3.0;3000.0;stimuli/m3.png;stimuli/p3.png;right;m;1.0;m;1.7058284000004278;3.0;13.0;decision;15.0;20.0;30.0;45.0;60.0;700.0;1.8;3.0
sub-007;p2;m2;;2.0;2000.0;stimuli/p2.png;stimuli/m2.png;right;m;1.0;m;0.9431244000006701;3.0;14.0;decision;15.0;20.0;30.0;45.0;60.0;700.0;2.0;2.0
sub-007;p3;m5;;3.0;3000.0;stimuli/m5.png;stimuli/p3.png;right;m;1.0;m;1.91341730000022;3.0;15.0;decision;15.0;20.0;30.0;45.0;60.0;700.0;1.9;5.0
sub-007;p4;m1;;4.0;4500.0;stimuli/p4.png;stimuli/m1.png;right;m;0.0;n;0.9450307000001884;3.0;16.0;decision;15.0;20.0;30.0;45.0;60.0;700.0;1.5;1.0
sub-007;p2;m3;;2.0;2000.0;stimuli/m3.png;stimuli/p2.png;right;m;1.0;m;0.9712472000005621;3.0;17.0;decision;15.0;20.0;30.0;45.0;60.0;700.0;1.6;3.0
sub-007;p4;m3;;4.0;4500.0;stimuli/m3.png;stimuli/p4.png;right;m;0.0;n;1.8091063000001668;3.0;18.0;decision;15.0;20.0;30.0;45.0;60.0;700.0;2.0;3.0
sub-007;p4;m4;;4.0;4500.0;stimuli/p4.png;stimuli/m4.png;right;m;1.0;m;1.1218102000002546;3.0;19.0;decision;15.0;20.0;30.0;45.0;60.0;700.0;1.7;4.0
sub-007;p5;m2;;5.0;6000.0;stimuli/m2.png;stimuli/p5.png;right;m;0.0;n;1.5014037000000826;3.0;20.0;decision;15.0;20.0;30.0;45.0;60.0;700.0;2.0;2.0
sub-007;p5;m4;;5.0;6000.0;stimuli/p5.png;stimuli/m4.png;right;m;0.0;n;1.1638085000004141;3.0;21.0;decision;15.0;20.0;30.0;45.0;60.0;700.0;1.9;4.0
sub-007;p1;m1;;1.0;1500.0;stimuli/p1.png;stimuli/m1.png;right;m;1.0;m;0.8686619000004612;3.0;22.0;decision;15.0;20.0;30.0;45.0;60.0;700.0;1.6;1.0
sub-007;p4;m2;;4.0;4500.0;stimuli/m2.png;stimuli/p4.png;right;m;0.0;n;0.8807262000004812;3.0;23.0;decision;15.0;20.0;30.0;45.0;60.0;700.0;1.7;2.0
sub-007;p2;m5;;2.0;2000.0;stimuli/m5.png;stimuli/p2.png;right;m;1.0;m;1.5561431000000994;3.0;24.0;decision;15.0;20.0;30.0;45.0;60.0;700.0;1.9;5.0
sub-007;p3;m1;;3.0;3000.0;stimuli/p3.png;stimuli/m1.png;right;m;0.0;n;0.9017861000002084;4.0;0.0;decision;15.0;20.0;30.0;45.0;60.0;700.0;1.8;1.0
sub-007;p2;m2;;2.0;2000.0;stimuli/p2.png;stimuli/m2.png;right;m;1.0;m;0.8207147000002806;4.0;1.0;decision;15.0;20.0;30.0;45.0;60.0;700.0;1.8;2.0
sub-007;p2;m3;;2.0;2000.0;stimuli/p2.png;stimuli/m3.png;right;m;1.0;m;0.9873824000005698;4.0;2.0;decision;15.0;20.0;30.0;45.0;60.0;700.0;1.9;3.0
sub-007;p5;m4;;5.0;6000.0;stimuli/p5.png;stimuli/m4.png;right;m;0.0;n;0.9596458000000894;4.0;3.0;decision;15.0;20.0;30.0;45.0;60.0;700.0;2.0;4.0
sub-007;p1;m1;;1.0;1500.0;stimuli/m1.png;stimuli/p1.png;right;m;1.0;m;0.8316978000002564;4.0;4.0;decision;15.0;20.0;30.0;45.0;60.0;700.0;1.8;1.0
sub-007;p1;m3;;1.0;1500.0;stimuli/p1.png;stimuli/m3.png;right;m;1.0;m;0.6995029000004251;4.0;5.0;decision;15.0;20.0;30.0;45.0;60.0;700.0;1.9;3.0
sub-007;p5;m1;;5.0;6000.0;stimuli/p5.png;stimuli/m1.png;right;m;0.0;n;0.7341569000004711;4.0;6.0;decision;15.0;20.0;30.0;45.0;60.0;700.0;1.7;1.0
sub-007;p2;m5;;2.0;2000.0;stimuli/p2.png;stimuli/m5.png;right;m;1.0;m;0.8618295000001126;4.0;7.0;decision;15.0;20.0;30.0;45.0;60.0;700.0;1.6;5.0
sub-007;p5;m5;;5.0;6000.0;stimuli/p5.png;stimuli/m5.png;right;m;1.0;m;0.8596958000002815;4.0;8.0;decision;15.0;20.0;30.0;45.0;60.0;700.0;1.5;5.0
sub-007;p2;m1;;2.0;2000.0;stimuli/p2.png;stimuli/m1.png;right;m;0.0;n;0.8033191000004081;4.0;9.0;decision;15.0;20.0;30.0;45.0;60.0;700.0;1.5;1.0
sub-007;p3;m2;;3.0;3000.0;stimuli/m2.png;stimuli/p3.png;right;m;0.0;n;0.7598829000003207;4.0;10.0;decision;15.0;20.0;30.0;45.0;60.0;700.0;1.6;2.0
sub-007;p3;m5;;3.0;3000.0;stimuli/m5.png;stimuli/p3.png;right;m;1.0;m;0.9011013000003912;4.0;11.0;decision;15.0;20.0;30.0;45.0;60.0;700.0;1.8;5.0
sub-007;p4;m4;;4.0;4500.0;stimuli/m4.png;stimuli/p4.png;right;m;1.0;m;0.8663264000001618;4.0;12.0;decision;15.0;20.0;30.0;45.0;60.0;700.0;1.8;4.0
sub-007;p4;m1;;4.0;4500.0;stimuli/p4.png;stimuli/m1.png;right;m;0.0;n;0.7795289999999113;4.0;13.0;decision;15.0;20.0;30.0;45.0;60.0;700.0;1.8;1.0
sub-007;p3;m4;;3.0;3000.0;stimuli/p3.png;stimuli/m4.png;right;m;1.0;m;0.9029397000003884;4.0;14.0;decision;15.0;20.0;30.0;45.0;60.0;700.0;1.8;4.0
sub-007;p5;m2;;5.0;6000.0;stimuli/p5.png;stimuli/m2.png;right;m;0.0;n;0.6697555999999167;4.0;15.0;decision;15.0;20.0;30.0;45.0;60.0;700.0;1.6;2.0
sub-007;p4;m5;;4.0;4500.0;stimuli/p4.png;stimuli/m5.png;right;m;1.0;m;1.5219523000000663;4.0;16.0;decision;15.0;20.0;30.0;45.0;60.0;700.0;1.5;5.0
sub-007;p4;m3;;4.0;4500.0;stimuli/p4.png;stimuli/m3.png;right;m;0.0;n;0.7448915000004491;4.0;17.0;decision;15.0;20.0;30.0;45.0;60.0;700.0;2.0;3.0
sub-007;p5;m3;;5.0;6000.0;stimuli/m3.png;stimuli/p5.png;right;m;0.0;n;0.7607907000001433;4.0;18.0;decision;15.0;20.0;30.0;45.0;60.0;700.0;1.8;3.0
sub-007;p4;m2;;4.0;4500.0;stimuli/m2.png;stimuli/p4.png;right;m;0.0;n;1.0837626000002274;4.0;19.0;decision;15.0;20.0;30.0;45.0;60.0;700.0;1.5;2.0
sub-007;p3;m3;;3.0;3000.0;stimuli/m3.png;stimuli/p3.png;right;m;1.0;m;1.2756321000006208;4.0;20.0;decision;15.0;20.0;30.0;45.0;60.0;700.0;1.5;3.0
sub-007;p2;m4;;2.0;2000.0;stimuli/m4.png;stimuli/p2.png;right;m;1.0;m;0.8264576999999917;4.0;21.0;decision;15.0;20.0;30.0;45.0;60.0;700.0;1.5;4.0
sub-007;p1;m5;;1.0;1500.0;stimuli/m5.png;stimuli/p1.png;right;m;1.0;m;1.0492323000003123;4.0;22.0;decision;15.0;20.0;30.0;45.0;60.0;700.0;1.5;5.0
sub-007;p1;m4;;1.0;1500.0;stimuli/p1.png;stimuli/m4.png;right;m;1.0;m;0.8419889000001604;4.0;23.0;decision;15.0;20.0;30.0;45.0;60.0;700.0;1.8;4.0
sub-007;p1;m2;;1.0;1500.0;stimuli/m2.png;stimuli/p1.png;right;m;1.0;m;1.6034942000005683;4.0;24.0;decision;15.0;20.0;30.0;45.0;60.0;700.0;1.7;2.0
sub-008;p1;m3;;1.0;7000.0;stimuli/p1.png;stimuli/m3.png;right;m;1.0;m;0.9367707000001246;0.0;0.0;decision;70.0;80.0;90.0;100.0;105.0;700.0;1.8;3.0
sub-008;p2;m5;;2.0;8000.0;stimuli/p2.png;stimuli/m5.png;right;m;1.0;m;0.8234949000006964;0.0;1.0;decision;70.0;80.0;90.0;100.0;105.0;700.0;1.5;5.0
sub-008;p2;m1;;2.0;8000.0;stimuli/m1.png;stimuli/p2.png;right;m;1.0;m;1.037121200000911;0.0;2.0;decision;70.0;80.0;90.0;100.0;105.0;700.0;1.8;1.0
sub-008;p3;m1;;3.0;9000.0;stimuli/m1.png;stimuli/p3.png;right;m;1.0;m;0.9324945000007574;0.0;3.0;decision;70.0;80.0;90.0;100.0;105.0;700.0;1.8;1.0
sub-008;p4;m4;;4.0;10000.0;stimuli/p4.png;stimuli/m4.png;right;m;1.0;m;0.8311034000007567;0.0;4.0;decision;70.0;80.0;90.0;100.0;105.0;700.0;1.7;4.0
sub-008;p3;m4;;3.0;9000.0;stimuli/p3.png;stimuli/m4.png;right;m;1.0;m;0.7102004000007582;0.0;5.0;decision;70.0;80.0;90.0;100.0;105.0;700.0;1.9;4.0
sub-008;p4;m3;;4.0;10000.0;stimuli/p4.png;stimuli/m3.png;right;m;1.0;m;0.6883936000003814;0.0;6.0;decision;70.0;80.0;90.0;100.0;105.0;700.0;1.7;3.0
sub-008;p2;m2;;2.0;8000.0;stimuli/m2.png;stimuli/p2.png;right;m;0.0;n;0.9727660000007744;0.0;7.0;decision;70.0;80.0;90.0;100.0;105.0;700.0;1.8;2.0
sub-008;p2;m3;;2.0;8000.0;stimuli/p2.png;stimuli/m3.png;right;m;1.0;m;0.8559060000006866;0.0;8.0;decision;70.0;80.0;90.0;100.0;105.0;700.0;1.7;3.0
sub-008;p4;m5;;4.0;10000.0;stimuli/p4.png;stimuli/m5.png;right;m;1.0;m;0.5338839000005464;0.0;9.0;decision;70.0;80.0;90.0;100.0;105.0;700.0;2.0;5.0
sub-008;p4;m2;;4.0;10000.0;stimuli/p4.png;stimuli/m2.png;right;m;1.0;m;0.6286908000001858;0.0;10.0;decision;70.0;80.0;90.0;100.0;105.0;700.0;1.8;2.0
sub-008;p1;m5;;1.0;7000.0;stimuli/p1.png;stimuli/m5.png;right;m;1.0;m;0.6315895999996428;0.0;11.0;decision;70.0;80.0;90.0;100.0;105.0;700.0;1.9;5.0
sub-008;p2;m4;;2.0;8000.0;stimuli/m4.png;stimuli/p2.png;right;m;0.0;n;0.7778071000002456;0.0;12.0;decision;70.0;80.0;90.0;100.0;105.0;700.0;1.5;4.0
sub-008;p3;m5;;3.0;9000.0;stimuli/m5.png;stimuli/p3.png;right;m;0.0;n;1.2734322000005704;0.0;13.0;decision;70.0;80.0;90.0;100.0;105.0;700.0;1.6;5.0
sub-008;p4;m1;;4.0;10000.0;stimuli/m1.png;stimuli/p4.png;right;m;0.0;n;2.110444699999789;0.0;14.0;decision;70.0;80.0;90.0;100.0;105.0;700.0;1.8;1.0
sub-008;p3;m2;;3.0;9000.0;stimuli/m2.png;stimuli/p3.png;right;m;1.0;m;0.9237922000011168;0.0;15.0;decision;70.0;80.0;90.0;100.0;105.0;700.0;1.6;2.0
sub-008;p1;m4;;1.0;7000.0;stimuli/p1.png;stimuli/m4.png;right;m;1.0;m;0.6447505000005549;0.0;16.0;decision;70.0;80.0;90.0;100.0;105.0;700.0;2.0;4.0
sub-008;p5;m2;;5.0;10500.0;stimuli/p5.png;stimuli/m2.png;right;m;1.0;m;0.5791271000007328;0.0;17.0;decision;70.0;80.0;90.0;100.0;105.0;700.0;1.6;2.0
sub-008;p5;m1;;5.0;10500.0;stimuli/p5.png;stimuli/m1.png;right;m;1.0;m;0.8743900000008579;0.0;18.0;decision;70.0;80.0;90.0;100.0;105.0;700.0;2.0;1.0
sub-008;p5;m5;;5.0;10500.0;stimuli/m5.png;stimuli/p5.png;right;m;1.0;m;1.1603648000000248;0.0;19.0;decision;70.0;80.0;90.0;100.0;105.0;700.0;1.7;5.0
sub-008;p1;m1;;1.0;7000.0;stimuli/m1.png;stimuli/p1.png;right;m;1.0;m;1.012052300000505;0.0;20.0;decision;70.0;80.0;90.0;100.0;105.0;700.0;1.9;1.0
sub-008;p1;m2;;1.0;7000.0;stimuli/m2.png;stimuli/p1.png;right;m;1.0;m;0.7354202000005898;0.0;21.0;decision;70.0;80.0;90.0;100.0;105.0;700.0;1.9;2.0
sub-008;p3;m3;;3.0;9000.0;stimuli/m3.png;stimuli/p3.png;right;m;1.0;m;1.0325495999995835;0.0;22.0;decision;70.0;80.0;90.0;100.0;105.0;700.0;1.7;3.0
sub-008;p5;m3;;5.0;10500.0;stimuli/m3.png;stimuli/p5.png;right;m;1.0;m;0.8429657000006046;0.0;23.0;decision;70.0;80.0;90.0;100.0;105.0;700.0;1.8;3.0
sub-008;p5;m4;;5.0;10500.0;stimuli/p5.png;stimuli/m4.png;right;m;1.0;m;0.6003685000005134;0.0;24.0;decision;70.0;80.0;90.0;100.0;105.0;700.0;1.8;4.0
sub-008;p2;m4;;2.0;8000.0;stimuli/p2.png;stimuli/m4.png;right;m;1.0;m;0.4569449999999051;1.0;0.0;decision;70.0;80.0;90.0;100.0;105.0;700.0;1.7;4.0
sub-008;p2;m1;;2.0;8000.0;stimuli/m1.png;stimuli/p2.png;right;m;1.0;m;0.6695809000002555;1.0;1.0;decision;70.0;80.0;90.0;100.0;105.0;700.0;1.9;1.0
sub-008;p3;m3;;3.0;9000.0;stimuli/m3.png;stimuli/p3.png;right;m;1.0;m;0.7089365000001635;1.0;2.0;decision;70.0;80.0;90.0;100.0;105.0;700.0;2.0;3.0
sub-008;p5;m3;;5.0;10500.0;stimuli/m3.png;stimuli/p5.png;right;m;1.0;m;0.556669100000363;1.0;3.0;decision;70.0;80.0;90.0;100.0;105.0;700.0;1.6;3.0
sub-008;p4;m4;;4.0;10000.0;stimuli/m4.png;stimuli/p4.png;right;m;1.0;m;0.5251101000003473;1.0;4.0;decision;70.0;80.0;90.0;100.0;105.0;700.0;1.8;4.0
sub-008;p5;m1;;5.0;10500.0;stimuli/m1.png;stimuli/p5.png;right;m;1.0;m;0.6900565000005372;1.0;5.0;decision;70.0;80.0;90.0;100.0;105.0;700.0;1.5;1.0
sub-008;p4;m2;;4.0;10000.0;stimuli/p4.png;stimuli/m2.png;right;m;1.0;m;0.905819600000541;1.0;6.0;decision;70.0;80.0;90.0;100.0;105.0;700.0;2.0;2.0
sub-008;p4;m3;;4.0;10000.0;stimuli/p4.png;stimuli/m3.png;right;m;1.0;m;0.7171957000000475;1.0;7.0;decision;70.0;80.0;90.0;100.0;105.0;700.0;1.9;3.0
sub-008;p1;m1;;1.0;7000.0;stimuli/p1.png;stimuli/m1.png;right;m;1.0;m;0.5336050000005343;1.0;8.0;decision;70.0;80.0;90.0;100.0;105.0;700.0;1.9;1.0
sub-008;p5;m5;;5.0;10500.0;stimuli/m5.png;stimuli/p5.png;right;m;1.0;m;0.5140025000000605;1.0;9.0;decision;70.0;80.0;90.0;100.0;105.0;700.0;1.8;5.0
sub-008;p3;m5;;3.0;9000.0;stimuli/p3.png;stimuli/m5.png;right;m;1.0;m;0.8077744000001985;1.0;10.0;decision;70.0;80.0;90.0;100.0;105.0;700.0;2.0;5.0
sub-008;p5;m2;;5.0;10500.0;stimuli/p5.png;stimuli/m2.png;right;m;1.0;m;0.593169200000375;1.0;11.0;decision;70.0;80.0;90.0;100.0;105.0;700.0;1.5;2.0
sub-008;p5;m4;;5.0;10500.0;stimuli/m4.png;stimuli/p5.png;right;m;1.0;m;0.6772578000009162;1.0;12.0;decision;70.0;80.0;90.0;100.0;105.0;700.0;1.5;4.0
sub-008;p1;m3;;1.0;7000.0;stimuli/p1.png;stimuli/m3.png;right;m;1.0;m;0.5207290000007561;1.0;13.0;decision;70.0;80.0;90.0;100.0;105.0;700.0;1.6;3.0
sub-008;p1;m4;;1.0;7000.0;stimuli/m4.png;stimuli/p1.png;right;m;1.0;m;0.528251800000362;1.0;14.0;decision;70.0;80.0;90.0;100.0;105.0;700.0;1.9;4.0
sub-008;p4;m1;;4.0;10000.0;stimuli/p4.png;stimuli/m1.png;right;m;1.0;m;0.5354569999999512;1.0;15.0;decision;70.0;80.0;90.0;100.0;105.0;700.0;1.8;1.0
sub-008;p3;m4;;3.0;9000.0;stimuli/p3.png;stimuli/m4.png;right;m;1.0;m;0.5888714000002437;1.0;16.0;decision;70.0;80.0;90.0;100.0;105.0;700.0;1.7;4.0
sub-008;p1;m2;;1.0;7000.0;stimuli/m2.png;stimuli/p1.png;right;m;1.0;m;1.229733799999849;1.0;17.0;decision;70.0;80.0;90.0;100.0;105.0;700.0;2.0;2.0
sub-008;p2;m5;;2.0;8000.0;stimuli/m5.png;stimuli/p2.png;right;m;1.0;m;0.7391559000006964;1.0;18.0;decision;70.0;80.0;90.0;100.0;105.0;700.0;1.9;5.0
sub-008;p4;m5;;4.0;10000.0;stimuli/m5.png;stimuli/p4.png;right;m;1.0;m;0.7983011000005718;1.0;19.0;decision;70.0;80.0;90.0;100.0;105.0;700.0;1.5;5.0
sub-008;p1;m5;;1.0;7000.0;stimuli/p1.png;stimuli/m5.png;right;m;1.0;m;0.5712841000004119;1.0;20.0;decision;70.0;80.0;90.0;100.0;105.0;700.0;1.9;5.0
sub-008;p2;m2;;2.0;8000.0;stimuli/m2.png;stimuli/p2.png;right;m;1.0;m;0.8388814000009006;1.0;21.0;decision;70.0;80.0;90.0;100.0;105.0;700.0;1.9;2.0
sub-008;p3;m1;;3.0;9000.0;stimuli/p3.png;stimuli/m1.png;right;m;1.0;m;0.4022251000005781;1.0;22.0;decision;70.0;80.0;90.0;100.0;105.0;700.0;1.7;1.0
sub-008;p3;m2;;3.0;9000.0;stimuli/p3.png;stimuli/m2.png;right;m;1.0;m;0.4394603000009738;1.0;23.0;decision;70.0;80.0;90.0;100.0;105.0;700.0;1.5;2.0
sub-008;p2;m3;;2.0;8000.0;stimuli/m3.png;stimuli/p2.png;right;m;1.0;m;0.4712901000011698;1.0;24.0;decision;70.0;80.0;90.0;100.0;105.0;700.0;1.7;3.0
sub-008;p5;m5;;5.0;10500.0;stimuli/p5.png;stimuli/m5.png;right;m;1.0;m;0.587182500000381;2.0;0.0;decision;70.0;80.0;90.0;100.0;105.0;700.0;1.8;5.0
sub-008;p2;m1;;2.0;8000.0;stimuli/m1.png;stimuli/p2.png;right;m;1.0;m;0.7888047000005827;2.0;1.0;decision;70.0;80.0;90.0;100.0;105.0;700.0;1.6;1.0
sub-008;p4;m3;;4.0;10000.0;stimuli/m3.png;stimuli/p4.png;right;m;1.0;m;0.5587267000009888;2.0;2.0;decision;70.0;80.0;90.0;100.0;105.0;700.0;1.6;3.0
